p,group,t,trial_num,rt,correct,cue,flanker_middle_direction,flanker_type,flanker_location,block_duration,stim_duration,exp_stage,key_press,correct_response,full_screen,focus_shifts
45,mt,1,1,608,TRUE,center,left,incongruent,down,608,608,test,37,37,TRUE,0
45,mt,1,2,498,TRUE,center,right,congruent,down,498,498,test,39,39,TRUE,0
45,mt,1,3,415,TRUE,double,right,neutral,down,415,415,test,39,39,TRUE,0
45,mt,1,4,484,TRUE,nocue,right,congruent,down,484,484,test,39,39,TRUE,0
45,mt,1,5,635,TRUE,nocue,right,neutral,up,635,635,test,39,39,TRUE,0
45,mt,1,6,605,TRUE,nocue,left,incongruent,up,605,605,test,37,37,TRUE,0
45,mt,1,7,453,TRUE,double,left,congruent,down,453,453,test,37,37,TRUE,0
45,mt,1,8,545,TRUE,nocue,left,congruent,up,545,545,test,37,37,TRUE,0
45,mt,1,9,521,TRUE,double,left,neutral,up,521,521,test,37,37,TRUE,0
45,mt,1,10,724,TRUE,spatial,left,incongruent,up,724,724,test,37,37,TRUE,0
45,mt,1,11,461,TRUE,spatial,right,congruent,down,461,461,test,39,39,TRUE,0
45,mt,1,12,510,TRUE,spatial,left,incongruent,down,510,510,test,37,37,TRUE,0
45,mt,1,13,559,TRUE,center,right,congruent,up,559,559,test,39,39,TRUE,0
45,mt,1,14,613,TRUE,center,right,incongruent,up,613,613,test,39,39,TRUE,0
45,mt,1,15,432,TRUE,spatial,right,incongruent,up,432,432,test,39,39,TRUE,0
45,mt,1,16,575,TRUE,center,left,incongruent,up,575,575,test,37,37,TRUE,0
45,mt,1,17,593,TRUE,double,left,incongruent,down,593,593,test,37,37,TRUE,0
45,mt,1,18,417,TRUE,double,left,congruent,up,417,417,test,37,37,TRUE,0
45,mt,1,19,483,TRUE,double,left,neutral,down,483,483,test,37,37,TRUE,0
45,mt,1,20,402,TRUE,spatial,left,neutral,up,402,402,test,37,37,TRUE,0
45,mt,1,21,550,TRUE,spatial,right,incongruent,down,550,550,test,39,39,TRUE,0
45,mt,1,22,445,TRUE,double,right,congruent,up,445,445,test,39,39,TRUE,0
45,mt,1,23,655,TRUE,double,right,neutral,up,655,655,test,39,39,TRUE,0
45,mt,1,24,437,TRUE,nocue,left,neutral,up,437,437,test,37,37,TRUE,0
45,mt,1,25,489,TRUE,double,right,congruent,down,489,489,test,39,39,TRUE,0
45,mt,1,26,597,TRUE,nocue,left,neutral,down,597,597,test,37,37,TRUE,0
45,mt,1,27,436,TRUE,center,right,neutral,up,436,436,test,39,39,TRUE,0
45,mt,1,28,613,TRUE,spatial,left,neutral,down,613,613,test,37,37,TRUE,0
45,mt,1,29,550,TRUE,center,right,neutral,down,550,550,test,39,39,TRUE,0
45,mt,1,30,563,TRUE,nocue,right,incongruent,up,563,563,test,39,39,TRUE,0
45,mt,1,31,433,TRUE,nocue,right,congruent,up,433,433,test,39,39,TRUE,0
45,mt,1,32,538,TRUE,center,left,congruent,down,538,538,test,37,37,TRUE,0
45,mt,1,33,561,TRUE,double,right,incongruent,down,561,561,test,39,39,TRUE,0
45,mt,1,34,531,TRUE,center,left,congruent,up,531,531,test,37,37,TRUE,0
45,mt,1,35,602,TRUE,center,left,neutral,up,602,602,test,37,37,TRUE,0
45,mt,1,36,576,TRUE,nocue,right,neutral,down,576,576,test,39,39,TRUE,0
45,mt,1,37,570,TRUE,spatial,right,neutral,down,570,570,test,39,39,TRUE,0
45,mt,1,38,500,TRUE,center,right,incongruent,down,500,500,test,39,39,TRUE,0
45,mt,1,39,581,TRUE,double,left,incongruent,up,581,581,test,37,37,TRUE,0
45,mt,1,40,352,TRUE,double,right,incongruent,up,352,352,test,39,39,TRUE,0
45,mt,1,41,551,TRUE,nocue,left,congruent,down,551,551,test,37,37,TRUE,0
45,mt,1,43,428,TRUE,spatial,left,congruent,down,428,428,test,37,37,TRUE,0
45,mt,1,44,394,TRUE,spatial,left,congruent,up,394,394,test,37,37,TRUE,0
45,mt,1,45,425,TRUE,spatial,right,congruent,up,425,425,test,39,39,TRUE,0
45,mt,1,47,493,TRUE,spatial,right,neutral,up,493,493,test,39,39,TRUE,0
45,mt,1,48,720,TRUE,nocue,right,incongruent,down,720,720,test,39,39,TRUE,0
45,mt,1,49,711,TRUE,double,right,neutral,down,711,711,test,39,39,TRUE,0
45,mt,1,50,649,TRUE,double,left,neutral,down,649,649,test,37,37,TRUE,0
45,mt,1,51,703,TRUE,spatial,left,incongruent,up,703,703,test,37,37,TRUE,0
45,mt,1,52,656,TRUE,center,left,incongruent,down,656,656,test,37,37,TRUE,0
45,mt,1,53,549,TRUE,spatial,right,congruent,up,549,549,test,39,39,TRUE,0
45,mt,1,54,685,TRUE,nocue,left,incongruent,up,685,685,test,37,37,TRUE,0
45,mt,1,55,466,TRUE,center,right,neutral,up,466,466,test,39,39,TRUE,0
45,mt,1,56,658,TRUE,center,right,incongruent,down,658,658,test,39,39,TRUE,0
45,mt,1,57,846,TRUE,spatial,right,neutral,down,846,846,test,39,39,TRUE,0
45,mt,1,58,572,TRUE,center,left,neutral,down,572,572,test,37,37,TRUE,0
45,mt,1,59,673,TRUE,spatial,left,neutral,up,673,673,test,37,37,TRUE,0
45,mt,1,60,453,TRUE,double,right,incongruent,down,453,453,test,39,39,TRUE,0
45,mt,1,61,607,TRUE,center,left,incongruent,up,607,607,test,37,37,TRUE,0
45,mt,1,62,556,TRUE,nocue,left,congruent,up,556,556,test,37,37,TRUE,0
45,mt,1,63,583,TRUE,center,left,congruent,down,583,583,test,37,37,TRUE,0
45,mt,1,64,508,TRUE,spatial,right,congruent,down,508,508,test,39,39,TRUE,0
45,mt,1,65,541,TRUE,double,left,congruent,up,541,541,test,37,37,TRUE,0
45,mt,1,66,364,TRUE,double,right,incongruent,up,364,364,test,39,39,TRUE,0
45,mt,1,67,629,TRUE,nocue,left,incongruent,down,629,629,test,37,37,TRUE,0
45,mt,1,68,571,TRUE,spatial,left,congruent,down,571,571,test,37,37,TRUE,0
45,mt,1,69,507,TRUE,nocue,left,neutral,up,507,507,test,37,37,TRUE,0
45,mt,1,70,440,TRUE,nocue,right,neutral,up,440,440,test,39,39,TRUE,0
45,mt,1,71,446,TRUE,double,right,congruent,down,446,446,test,39,39,TRUE,0
45,mt,1,72,419,TRUE,nocue,right,incongruent,down,419,419,test,39,39,TRUE,0
45,mt,1,73,450,TRUE,double,left,incongruent,down,450,450,test,37,37,TRUE,0
45,mt,1,74,423,TRUE,spatial,left,incongruent,down,423,423,test,37,37,TRUE,0
45,mt,1,75,665,TRUE,spatial,right,neutral,up,665,665,test,39,39,TRUE,0
45,mt,1,76,685,TRUE,nocue,left,neutral,down,685,685,test,37,37,TRUE,0
45,mt,1,77,577,TRUE,spatial,left,neutral,down,577,577,test,37,37,TRUE,0
45,mt,1,78,513,TRUE,nocue,right,congruent,down,513,513,test,39,39,TRUE,0
45,mt,1,79,489,TRUE,center,right,congruent,up,489,489,test,39,39,TRUE,0
45,mt,1,80,547,TRUE,double,right,neutral,up,547,547,test,39,39,TRUE,0
45,mt,1,81,530,TRUE,center,right,neutral,down,530,530,test,39,39,TRUE,0
45,mt,1,82,474,TRUE,center,left,neutral,up,474,474,test,37,37,TRUE,0
45,mt,1,84,512,TRUE,center,right,congruent,down,512,512,test,39,39,TRUE,0
45,mt,1,85,588,TRUE,double,left,neutral,up,588,588,test,37,37,TRUE,0
45,mt,1,86,667,TRUE,nocue,right,incongruent,up,667,667,test,39,39,TRUE,0
45,mt,1,87,442,TRUE,nocue,right,congruent,up,442,442,test,39,39,TRUE,0
45,mt,1,88,676,TRUE,double,left,congruent,down,676,676,test,37,37,TRUE,0
45,mt,1,89,558,TRUE,spatial,right,incongruent,up,558,558,test,39,39,TRUE,0
45,mt,1,90,529,TRUE,center,right,incongruent,up,529,529,test,39,39,TRUE,0
45,mt,1,91,674,TRUE,nocue,left,congruent,down,674,674,test,37,37,TRUE,0
45,mt,1,92,730,TRUE,spatial,right,incongruent,down,730,730,test,39,39,TRUE,0
45,mt,1,93,477,TRUE,center,left,congruent,up,477,477,test,37,37,TRUE,0
45,mt,1,94,795,TRUE,nocue,right,neutral,down,795,795,test,39,39,TRUE,0
45,mt,1,95,410,TRUE,double,right,congruent,up,410,410,test,39,39,TRUE,0
45,mt,1,96,430,TRUE,double,left,incongruent,up,430,430,test,37,37,TRUE,0
45,mt,1,97,552,TRUE,spatial,right,neutral,down,552,552,test,39,39,TRUE,0
45,mt,1,98,411,TRUE,spatial,right,incongruent,down,411,411,test,39,39,TRUE,0
45,mt,1,100,494,TRUE,double,right,neutral,down,494,494,test,39,39,TRUE,0
45,mt,1,101,657,TRUE,center,right,congruent,up,657,657,test,39,39,TRUE,0
45,mt,1,102,535,TRUE,center,right,incongruent,up,535,535,test,39,39,TRUE,0
45,mt,1,103,531,TRUE,spatial,left,incongruent,down,531,531,test,37,37,TRUE,0
45,mt,1,104,564,TRUE,nocue,left,incongruent,up,564,564,test,37,37,TRUE,0
45,mt,1,105,428,TRUE,double,left,congruent,down,428,428,test,37,37,TRUE,0
45,mt,1,106,705,TRUE,double,right,congruent,down,705,705,test,39,39,TRUE,0
45,mt,1,107,598,TRUE,nocue,right,neutral,down,598,598,test,39,39,TRUE,0
45,mt,1,108,554,TRUE,double,left,neutral,down,554,554,test,37,37,TRUE,0
45,mt,1,109,453,TRUE,nocue,left,neutral,down,453,453,test,37,37,TRUE,0
45,mt,1,110,787,TRUE,spatial,left,congruent,up,787,787,test,37,37,TRUE,0
45,mt,1,111,554,TRUE,center,left,neutral,down,554,554,test,37,37,TRUE,0
45,mt,1,112,618,TRUE,nocue,right,neutral,up,618,618,test,39,39,TRUE,0
45,mt,1,113,438,TRUE,spatial,right,congruent,up,438,438,test,39,39,TRUE,0
45,mt,1,115,485,TRUE,double,left,incongruent,up,485,485,test,37,37,TRUE,0
45,mt,1,116,497,TRUE,nocue,right,congruent,down,497,497,test,39,39,TRUE,0
45,mt,1,117,437,TRUE,spatial,left,neutral,down,437,437,test,37,37,TRUE,0
45,mt,1,118,399,TRUE,spatial,left,neutral,up,399,399,test,37,37,TRUE,0
45,mt,1,119,481,TRUE,center,right,neutral,up,481,481,test,39,39,TRUE,0
45,mt,1,120,562,TRUE,center,right,congruent,down,562,562,test,39,39,TRUE,0
45,mt,1,121,340,TRUE,double,left,neutral,up,340,340,test,37,37,TRUE,0
45,mt,1,122,652,TRUE,nocue,left,congruent,down,652,652,test,37,37,TRUE,0
45,mt,1,123,533,TRUE,spatial,left,congruent,down,533,533,test,37,37,TRUE,0
45,mt,1,124,724,TRUE,spatial,right,incongruent,up,724,724,test,39,39,TRUE,0
45,mt,1,125,416,TRUE,double,left,congruent,up,416,416,test,37,37,TRUE,0
45,mt,1,126,447,TRUE,center,left,neutral,up,447,447,test,37,37,TRUE,0
45,mt,1,127,414,TRUE,double,right,congruent,up,414,414,test,39,39,TRUE,0
45,mt,1,128,530,TRUE,center,left,congruent,down,530,530,test,37,37,TRUE,0
45,mt,1,129,534,TRUE,nocue,right,congruent,up,534,534,test,39,39,TRUE,0
45,mt,1,130,579,TRUE,double,right,incongruent,up,579,579,test,39,39,TRUE,0
45,mt,1,132,540,TRUE,nocue,right,incongruent,down,540,540,test,39,39,TRUE,0
45,mt,1,133,594,TRUE,center,left,incongruent,up,594,594,test,37,37,TRUE,0
45,mt,1,134,631,TRUE,nocue,left,congruent,up,631,631,test,37,37,TRUE,0
45,mt,1,135,725,TRUE,nocue,left,incongruent,down,725,725,test,37,37,TRUE,0
45,mt,1,136,612,TRUE,double,left,incongruent,down,612,612,test,37,37,TRUE,0
45,mt,1,137,713,TRUE,nocue,right,incongruent,up,713,713,test,39,39,TRUE,0
45,mt,1,138,686,TRUE,center,left,incongruent,down,686,686,test,37,37,TRUE,0
45,mt,1,139,384,TRUE,double,right,neutral,up,384,384,test,39,39,TRUE,0
45,mt,1,140,615,TRUE,center,right,neutral,down,615,615,test,39,39,TRUE,0
45,mt,1,142,417,TRUE,nocue,left,neutral,up,417,417,test,37,37,TRUE,0
45,mt,1,143,480,TRUE,spatial,right,congruent,down,480,480,test,39,39,TRUE,0
45,mt,1,144,466,TRUE,spatial,right,neutral,up,466,466,test,39,39,TRUE,0
45,mt,2,1,566,TRUE,double,right,neutral,down,566,566,test,39,39,TRUE,0
45,mt,2,2,537,TRUE,double,left,neutral,down,537,537,test,37,37,TRUE,0
45,mt,2,3,404,TRUE,spatial,left,neutral,down,404,404,test,37,37,TRUE,0
45,mt,2,4,411,TRUE,nocue,right,neutral,up,411,411,test,39,39,TRUE,0
45,mt,2,5,380,TRUE,spatial,left,incongruent,up,380,380,test,37,37,TRUE,0
45,mt,2,6,376,TRUE,nocue,left,neutral,down,376,376,test,37,37,TRUE,0
45,mt,2,7,574,TRUE,center,right,congruent,down,574,574,test,39,39,TRUE,0
45,mt,2,8,658,TRUE,center,right,neutral,down,658,658,test,39,39,TRUE,0
45,mt,2,9,395,TRUE,double,right,congruent,up,395,395,test,39,39,TRUE,0
45,mt,2,10,558,TRUE,center,left,congruent,down,558,558,test,37,37,TRUE,0
45,mt,2,11,515,TRUE,double,right,congruent,down,515,515,test,39,39,TRUE,0
45,mt,2,12,370,TRUE,spatial,left,neutral,up,370,370,test,37,37,TRUE,0
45,mt,2,13,644,TRUE,double,right,incongruent,down,644,644,test,39,39,TRUE,0
45,mt,2,14,491,TRUE,double,right,incongruent,up,491,491,test,39,39,TRUE,0
45,mt,2,15,394,TRUE,center,right,incongruent,up,394,394,test,39,39,TRUE,0
45,mt,2,16,355,TRUE,spatial,right,incongruent,up,355,355,test,39,39,TRUE,0
45,mt,2,17,460,TRUE,spatial,left,congruent,down,460,460,test,37,37,TRUE,0
45,mt,2,18,591,TRUE,nocue,right,neutral,down,591,591,test,39,39,TRUE,0
45,mt,2,19,595,TRUE,spatial,right,incongruent,down,595,595,test,39,39,TRUE,0
45,mt,2,20,608,TRUE,nocue,left,incongruent,down,608,608,test,37,37,TRUE,0
45,mt,2,21,549,TRUE,double,left,incongruent,up,549,549,test,37,37,TRUE,0
45,mt,2,22,407,TRUE,center,left,neutral,up,407,407,test,37,37,TRUE,0
45,mt,2,23,336,TRUE,spatial,right,neutral,up,336,336,test,39,39,TRUE,0
45,mt,2,24,504,TRUE,nocue,left,neutral,up,504,504,test,37,37,TRUE,0
45,mt,2,25,396,TRUE,nocue,right,congruent,up,396,396,test,39,39,TRUE,0
45,mt,2,26,568,TRUE,nocue,left,congruent,down,568,568,test,37,37,TRUE,0
45,mt,2,27,573,TRUE,nocue,right,incongruent,down,573,573,test,39,39,TRUE,0
45,mt,2,28,583,TRUE,double,left,incongruent,down,583,583,test,37,37,TRUE,0
45,mt,2,29,563,TRUE,nocue,left,congruent,up,563,563,test,37,37,TRUE,0
45,mt,2,30,511,TRUE,double,left,congruent,down,511,511,test,37,37,TRUE,0
45,mt,2,31,556,TRUE,center,left,neutral,down,556,556,test,37,37,TRUE,0
45,mt,2,32,427,TRUE,spatial,right,congruent,up,427,427,test,39,39,TRUE,0
45,mt,2,33,550,TRUE,center,left,incongruent,up,550,550,test,37,37,TRUE,0
45,mt,2,34,408,TRUE,spatial,left,incongruent,down,408,408,test,37,37,TRUE,0
45,mt,2,35,650,TRUE,center,right,incongruent,down,650,650,test,39,39,TRUE,0
45,mt,2,36,595,TRUE,nocue,left,incongruent,up,595,595,test,37,37,TRUE,0
45,mt,2,37,602,TRUE,nocue,right,incongruent,up,602,602,test,39,39,TRUE,0
45,mt,2,38,395,TRUE,spatial,right,neutral,down,395,395,test,39,39,TRUE,0
45,mt,2,39,563,TRUE,double,left,neutral,up,563,563,test,37,37,TRUE,0
45,mt,2,40,532,TRUE,spatial,right,congruent,down,532,532,test,39,39,TRUE,0
45,mt,2,41,598,TRUE,center,left,incongruent,down,598,598,test,37,37,TRUE,0
45,mt,2,42,445,TRUE,center,left,congruent,up,445,445,test,37,37,TRUE,0
45,mt,2,43,410,TRUE,spatial,left,congruent,up,410,410,test,37,37,TRUE,0
45,mt,2,44,571,TRUE,center,right,neutral,up,571,571,test,39,39,TRUE,0
45,mt,2,45,405,TRUE,double,left,congruent,up,405,405,test,37,37,TRUE,0
45,mt,2,46,380,TRUE,double,right,neutral,up,380,380,test,39,39,TRUE,0
45,mt,2,47,377,TRUE,center,right,congruent,up,377,377,test,39,39,TRUE,0
45,mt,2,48,626,TRUE,nocue,right,congruent,down,626,626,test,39,39,TRUE,0
45,mt,2,49,570,TRUE,nocue,left,incongruent,down,570,570,test,37,37,TRUE,0
45,mt,2,50,393,TRUE,spatial,right,incongruent,up,393,393,test,39,39,TRUE,0
45,mt,2,51,337,TRUE,spatial,right,congruent,up,337,337,test,39,39,TRUE,0
45,mt,2,52,403,TRUE,center,right,congruent,up,403,403,test,39,39,TRUE,0
45,mt,2,53,544,TRUE,center,right,congruent,down,544,544,test,39,39,TRUE,0
45,mt,2,54,447,TRUE,spatial,left,neutral,down,447,447,test,37,37,TRUE,0
45,mt,2,55,420,TRUE,double,right,congruent,down,420,420,test,39,39,TRUE,0
45,mt,2,56,484,TRUE,spatial,right,neutral,down,484,484,test,39,39,TRUE,0
45,mt,2,57,460,TRUE,nocue,left,congruent,up,460,460,test,37,37,TRUE,0
45,mt,2,58,583,TRUE,center,right,incongruent,down,583,583,test,39,39,TRUE,0
45,mt,2,59,506,TRUE,nocue,left,neutral,down,506,506,test,37,37,TRUE,0
45,mt,2,60,677,TRUE,double,left,neutral,up,677,677,test,37,37,TRUE,0
45,mt,2,61,494,TRUE,nocue,right,neutral,up,494,494,test,39,39,TRUE,0
45,mt,2,62,443,TRUE,nocue,right,congruent,up,443,443,test,39,39,TRUE,0
45,mt,2,63,436,TRUE,double,left,congruent,up,436,436,test,37,37,TRUE,0
45,mt,2,64,750,TRUE,double,left,incongruent,down,750,750,test,37,37,TRUE,0
45,mt,2,65,364,TRUE,double,right,congruent,up,364,364,test,39,39,TRUE,0
45,mt,2,66,555,TRUE,spatial,right,incongruent,down,555,555,test,39,39,TRUE,0
45,mt,2,67,386,TRUE,double,right,incongruent,up,386,386,test,39,39,TRUE,0
45,mt,2,68,434,TRUE,nocue,right,incongruent,up,434,434,test,39,39,TRUE,0
45,mt,2,69,421,TRUE,center,left,incongruent,up,421,421,test,37,37,TRUE,0
45,mt,2,70,371,TRUE,center,left,neutral,up,371,371,test,37,37,TRUE,0
45,mt,2,71,317,TRUE,spatial,left,incongruent,up,317,317,test,37,37,TRUE,0
45,mt,2,72,429,TRUE,center,right,neutral,down,429,429,test,39,39,TRUE,0
45,mt,2,73,435,TRUE,double,right,incongruent,down,435,435,test,39,39,TRUE,0
45,mt,2,74,524,TRUE,nocue,right,congruent,down,524,524,test,39,39,TRUE,0
45,mt,2,75,340,TRUE,spatial,right,congruent,down,340,340,test,39,39,TRUE,0
45,mt,2,76,353,TRUE,spatial,left,congruent,up,353,353,test,37,37,TRUE,0
45,mt,2,77,499,TRUE,center,left,congruent,up,499,499,test,37,37,TRUE,0
45,mt,2,78,378,TRUE,spatial,right,neutral,up,378,378,test,39,39,TRUE,0
45,mt,2,79,653,TRUE,double,left,congruent,down,653,653,test,37,37,TRUE,0
45,mt,2,80,408,TRUE,nocue,left,neutral,up,408,408,test,37,37,TRUE,0
45,mt,2,81,445,TRUE,nocue,right,neutral,down,445,445,test,39,39,TRUE,0
45,mt,2,83,429,TRUE,center,right,neutral,up,429,429,test,39,39,TRUE,0
45,mt,2,84,450,TRUE,center,left,neutral,down,450,450,test,37,37,TRUE,0
45,mt,2,85,427,TRUE,spatial,left,neutral,up,427,427,test,37,37,TRUE,0
45,mt,2,86,723,TRUE,nocue,left,congruent,down,723,723,test,37,37,TRUE,0
45,mt,2,87,328,TRUE,double,right,neutral,up,328,328,test,39,39,TRUE,0
45,mt,2,88,390,TRUE,center,left,incongruent,down,390,390,test,37,37,TRUE,0
45,mt,2,89,502,TRUE,center,left,congruent,down,502,502,test,37,37,TRUE,0
45,mt,2,91,428,TRUE,double,left,neutral,down,428,428,test,37,37,TRUE,0
45,mt,2,92,563,TRUE,nocue,left,incongruent,up,563,563,test,37,37,TRUE,0
45,mt,2,93,397,TRUE,double,left,incongruent,up,397,397,test,37,37,TRUE,0
45,mt,2,95,666,TRUE,center,right,incongruent,up,666,666,test,39,39,TRUE,0
45,mt,2,96,366,TRUE,spatial,left,congruent,down,366,366,test,37,37,TRUE,0
45,mt,2,97,507,TRUE,center,left,congruent,up,507,507,test,37,37,TRUE,0
45,mt,2,98,367,TRUE,center,right,congruent,up,367,367,test,39,39,TRUE,0
45,mt,2,99,513,TRUE,spatial,right,neutral,down,513,513,test,39,39,TRUE,0
45,mt,2,101,405,TRUE,double,left,neutral,up,405,405,test,37,37,TRUE,0
45,mt,2,102,523,TRUE,center,left,congruent,down,523,523,test,37,37,TRUE,0
45,mt,2,103,461,TRUE,nocue,right,incongruent,up,461,461,test,39,39,TRUE,0
45,mt,2,104,537,TRUE,center,right,incongruent,up,537,537,test,39,39,TRUE,0
45,mt,2,105,512,TRUE,nocue,left,neutral,down,512,512,test,37,37,TRUE,0
45,mt,2,106,432,TRUE,double,left,incongruent,up,432,432,test,37,37,TRUE,0
45,mt,2,107,676,TRUE,double,left,congruent,down,676,676,test,37,37,TRUE,0
45,mt,2,108,549,TRUE,double,right,congruent,up,549,549,test,39,39,TRUE,0
45,mt,2,109,372,TRUE,spatial,left,incongruent,down,372,372,test,37,37,TRUE,0
45,mt,2,110,457,TRUE,double,left,incongruent,down,457,457,test,37,37,TRUE,0
45,mt,2,111,494,TRUE,nocue,left,neutral,up,494,494,test,37,37,TRUE,0
45,mt,2,112,573,TRUE,center,right,congruent,down,573,573,test,39,39,TRUE,0
45,mt,2,113,510,TRUE,nocue,left,congruent,down,510,510,test,37,37,TRUE,0
45,mt,2,114,463,TRUE,spatial,left,congruent,down,463,463,test,37,37,TRUE,0
45,mt,2,115,367,TRUE,spatial,left,neutral,up,367,367,test,37,37,TRUE,0
45,mt,2,116,609,TRUE,double,right,neutral,up,609,609,test,39,39,TRUE,0
45,mt,2,117,564,TRUE,center,left,incongruent,up,564,564,test,37,37,TRUE,0
45,mt,2,118,379,TRUE,center,left,neutral,up,379,379,test,37,37,TRUE,0
45,mt,2,119,836,TRUE,spatial,right,incongruent,down,836,836,test,39,39,TRUE,0
45,mt,2,120,541,TRUE,center,right,neutral,up,541,541,test,39,39,TRUE,0
45,mt,2,121,365,TRUE,spatial,right,congruent,up,365,365,test,39,39,TRUE,0
45,mt,2,122,641,TRUE,double,right,congruent,down,641,641,test,39,39,TRUE,0
45,mt,2,123,526,TRUE,nocue,right,incongruent,down,526,526,test,39,39,TRUE,0
45,mt,2,124,615,TRUE,nocue,right,neutral,down,615,615,test,39,39,TRUE,0
45,mt,2,125,464,TRUE,spatial,left,incongruent,up,464,464,test,37,37,TRUE,0
45,mt,2,126,611,TRUE,double,right,neutral,down,611,611,test,39,39,TRUE,0
45,mt,2,127,647,TRUE,double,left,neutral,down,647,647,test,37,37,TRUE,0
45,mt,2,128,403,TRUE,spatial,left,congruent,up,403,403,test,37,37,TRUE,0
45,mt,2,129,595,TRUE,center,left,neutral,down,595,595,test,37,37,TRUE,0
45,mt,2,130,433,TRUE,spatial,right,congruent,down,433,433,test,39,39,TRUE,0
45,mt,2,131,420,TRUE,spatial,right,incongruent,up,420,420,test,39,39,TRUE,0
45,mt,2,132,516,TRUE,nocue,left,incongruent,up,516,516,test,37,37,TRUE,0
45,mt,2,133,552,TRUE,double,right,incongruent,up,552,552,test,39,39,TRUE,0
45,mt,2,134,530,TRUE,nocue,left,congruent,up,530,530,test,37,37,TRUE,0
45,mt,2,135,377,TRUE,spatial,right,neutral,up,377,377,test,39,39,TRUE,0
45,mt,2,136,394,TRUE,spatial,left,neutral,down,394,394,test,37,37,TRUE,0
45,mt,2,137,578,TRUE,center,left,incongruent,down,578,578,test,37,37,TRUE,0
45,mt,2,138,362,TRUE,double,right,incongruent,down,362,362,test,39,39,TRUE,0
45,mt,2,139,462,TRUE,nocue,right,congruent,up,462,462,test,39,39,TRUE,0
45,mt,2,140,623,TRUE,center,right,incongruent,down,623,623,test,39,39,TRUE,0
45,mt,2,141,578,TRUE,center,right,neutral,down,578,578,test,39,39,TRUE,0
45,mt,2,142,550,TRUE,nocue,left,incongruent,down,550,550,test,37,37,TRUE,0
45,mt,2,143,658,TRUE,double,left,congruent,up,658,658,test,37,37,TRUE,0
45,mt,2,144,627,TRUE,nocue,right,neutral,up,627,627,test,39,39,TRUE,0
1,mt,1,1,548,TRUE,center,left,congruent,down,548,548,test,37,37,TRUE,0
1,mt,1,2,591,TRUE,center,right,incongruent,up,591,591,test,39,39,TRUE,0
1,mt,1,3,600,TRUE,double,right,neutral,down,600,600,test,39,39,TRUE,0
1,mt,1,4,602,TRUE,double,right,congruent,down,602,602,test,39,39,TRUE,0
1,mt,1,5,556,TRUE,center,left,incongruent,down,556,556,test,37,37,TRUE,0
1,mt,1,6,645,TRUE,nocue,left,neutral,down,645,645,test,37,37,TRUE,0
1,mt,1,7,613,TRUE,nocue,right,neutral,down,613,613,test,39,39,TRUE,0
1,mt,1,8,610,TRUE,double,left,neutral,up,610,610,test,37,37,TRUE,0
1,mt,1,9,594,TRUE,nocue,left,congruent,up,594,594,test,37,37,TRUE,0
1,mt,1,10,646,TRUE,nocue,right,incongruent,down,646,646,test,39,39,TRUE,0
1,mt,1,11,517,TRUE,double,left,neutral,down,517,517,test,37,37,TRUE,0
1,mt,1,12,576,TRUE,center,right,neutral,up,576,576,test,39,39,TRUE,0
1,mt,1,13,617,TRUE,center,left,neutral,up,617,617,test,37,37,TRUE,0
1,mt,1,14,660,TRUE,spatial,left,incongruent,up,660,660,test,37,37,TRUE,0
1,mt,1,15,681,TRUE,center,right,congruent,down,681,681,test,39,39,TRUE,0
1,mt,1,16,570,TRUE,double,right,neutral,up,570,570,test,39,39,TRUE,0
1,mt,1,17,776,TRUE,nocue,right,congruent,down,776,776,test,39,39,TRUE,0
1,mt,1,18,616,TRUE,double,left,congruent,up,616,616,test,37,37,TRUE,0
1,mt,1,19,690,TRUE,center,left,incongruent,up,690,690,test,37,37,TRUE,0
1,mt,1,20,649,TRUE,center,left,congruent,up,649,649,test,37,37,TRUE,0
1,mt,1,21,729,TRUE,center,right,congruent,up,729,729,test,39,39,TRUE,0
1,mt,1,22,617,TRUE,spatial,right,neutral,down,617,617,test,39,39,TRUE,0
1,mt,1,23,629,TRUE,nocue,right,incongruent,up,629,629,test,39,39,TRUE,0
1,mt,1,24,559,TRUE,spatial,left,congruent,up,559,559,test,37,37,TRUE,0
1,mt,1,25,561,TRUE,spatial,right,incongruent,down,561,561,test,39,39,TRUE,0
1,mt,1,26,427,TRUE,spatial,left,congruent,down,427,427,test,37,37,TRUE,0
1,mt,1,27,508,TRUE,double,left,incongruent,up,508,508,test,37,37,TRUE,0
1,mt,1,28,448,TRUE,spatial,left,incongruent,down,448,448,test,37,37,TRUE,0
1,mt,1,29,723,TRUE,center,right,incongruent,down,723,723,test,39,39,TRUE,0
1,mt,1,30,585,TRUE,double,left,incongruent,down,585,585,test,37,37,TRUE,0
1,mt,1,31,662,TRUE,double,right,congruent,up,662,662,test,39,39,TRUE,0
1,mt,1,32,519,TRUE,center,left,neutral,down,519,519,test,37,37,TRUE,0
1,mt,1,33,559,TRUE,spatial,right,congruent,up,559,559,test,39,39,TRUE,0
1,mt,1,34,598,TRUE,nocue,left,neutral,up,598,598,test,37,37,TRUE,0
1,mt,1,35,589,TRUE,nocue,left,incongruent,down,589,589,test,37,37,TRUE,0
1,mt,1,36,640,TRUE,nocue,right,neutral,up,640,640,test,39,39,TRUE,0
1,mt,1,37,488,TRUE,nocue,left,congruent,down,488,488,test,37,37,TRUE,0
1,mt,1,38,681,TRUE,spatial,right,incongruent,up,681,681,test,39,39,TRUE,0
1,mt,1,39,679,TRUE,nocue,left,incongruent,up,679,679,test,37,37,TRUE,0
1,mt,1,40,462,TRUE,spatial,left,neutral,down,462,462,test,37,37,TRUE,0
1,mt,1,41,526,TRUE,double,left,congruent,down,526,526,test,37,37,TRUE,0
1,mt,1,42,643,TRUE,double,right,incongruent,down,643,643,test,39,39,TRUE,0
1,mt,1,43,430,TRUE,spatial,left,neutral,up,430,430,test,37,37,TRUE,0
1,mt,1,44,544,TRUE,double,right,incongruent,up,544,544,test,39,39,TRUE,0
1,mt,1,45,752,TRUE,nocue,right,congruent,up,752,752,test,39,39,TRUE,0
1,mt,1,46,411,TRUE,spatial,right,neutral,up,411,411,test,39,39,TRUE,0
1,mt,1,47,573,TRUE,center,right,neutral,down,573,573,test,39,39,TRUE,0
1,mt,1,48,466,TRUE,spatial,right,congruent,down,466,466,test,39,39,TRUE,0
1,mt,1,49,430,TRUE,double,right,congruent,up,430,430,test,39,39,TRUE,0
1,mt,1,50,546,TRUE,center,left,congruent,up,546,546,test,37,37,TRUE,0
1,mt,1,51,455,TRUE,spatial,left,congruent,up,455,455,test,37,37,TRUE,0
1,mt,1,52,602,TRUE,nocue,left,congruent,up,602,602,test,37,37,TRUE,0
1,mt,1,53,476,TRUE,spatial,right,incongruent,up,476,476,test,39,39,TRUE,0
1,mt,1,54,434,TRUE,spatial,right,neutral,down,434,434,test,39,39,TRUE,0
1,mt,1,55,452,TRUE,spatial,left,incongruent,up,452,452,test,37,37,TRUE,0
1,mt,1,56,709,TRUE,center,right,congruent,up,709,709,test,39,39,TRUE,0
1,mt,1,57,709,TRUE,double,right,incongruent,up,709,709,test,39,39,TRUE,0
1,mt,1,58,690,TRUE,center,right,neutral,down,690,690,test,39,39,TRUE,0
1,mt,1,59,667,TRUE,center,right,neutral,up,667,667,test,39,39,TRUE,0
1,mt,1,60,593,TRUE,center,left,neutral,up,593,593,test,37,37,TRUE,0
1,mt,1,61,585,TRUE,spatial,left,congruent,down,585,585,test,37,37,TRUE,0
1,mt,1,62,495,TRUE,spatial,right,incongruent,down,495,495,test,39,39,TRUE,0
1,mt,1,63,668,TRUE,nocue,right,neutral,down,668,668,test,39,39,TRUE,0
1,mt,1,64,666,TRUE,nocue,right,incongruent,down,666,666,test,39,39,TRUE,0
1,mt,1,65,580,TRUE,double,left,congruent,down,580,580,test,37,37,TRUE,0
1,mt,1,66,599,TRUE,center,right,incongruent,down,599,599,test,39,39,TRUE,0
1,mt,1,67,650,TRUE,center,left,incongruent,up,650,650,test,37,37,TRUE,0
1,mt,1,68,620,TRUE,double,left,neutral,up,620,620,test,37,37,TRUE,0
1,mt,1,69,737,TRUE,spatial,left,neutral,up,737,737,test,37,37,TRUE,0
1,mt,1,70,581,TRUE,nocue,left,incongruent,up,581,581,test,37,37,TRUE,0
1,mt,1,71,708,TRUE,nocue,right,congruent,up,708,708,test,39,39,TRUE,0
1,mt,1,72,500,TRUE,center,left,congruent,down,500,500,test,37,37,TRUE,0
1,mt,1,73,622,TRUE,double,right,congruent,down,622,622,test,39,39,TRUE,0
1,mt,1,74,486,TRUE,double,left,neutral,down,486,486,test,37,37,TRUE,0
1,mt,1,75,574,TRUE,double,right,incongruent,down,574,574,test,39,39,TRUE,0
1,mt,1,76,514,TRUE,nocue,left,neutral,down,514,514,test,37,37,TRUE,0
1,mt,1,77,412,TRUE,spatial,left,neutral,down,412,412,test,37,37,TRUE,0
1,mt,1,78,468,TRUE,spatial,left,incongruent,down,468,468,test,37,37,TRUE,0
1,mt,1,79,611,TRUE,double,right,neutral,up,611,611,test,39,39,TRUE,0
1,mt,1,80,548,TRUE,center,right,congruent,down,548,548,test,39,39,TRUE,0
1,mt,1,81,741,TRUE,double,left,incongruent,up,741,741,test,37,37,TRUE,0
1,mt,1,82,613,TRUE,center,right,incongruent,up,613,613,test,39,39,TRUE,0
1,mt,1,83,457,TRUE,nocue,left,congruent,down,457,457,test,37,37,TRUE,0
1,mt,1,84,494,TRUE,spatial,right,congruent,up,494,494,test,39,39,TRUE,0
1,mt,1,85,618,TRUE,double,left,congruent,up,618,618,test,37,37,TRUE,0
1,mt,1,86,626,TRUE,nocue,left,incongruent,down,626,626,test,37,37,TRUE,0
1,mt,1,87,537,TRUE,double,left,incongruent,down,537,537,test,37,37,TRUE,0
1,mt,1,88,558,TRUE,nocue,left,neutral,up,558,558,test,37,37,TRUE,0
1,mt,1,89,595,TRUE,nocue,right,incongruent,up,595,595,test,39,39,TRUE,0
1,mt,1,90,540,TRUE,center,left,neutral,down,540,540,test,37,37,TRUE,0
1,mt,1,91,425,TRUE,spatial,right,congruent,down,425,425,test,39,39,TRUE,0
1,mt,1,92,361,TRUE,spatial,right,neutral,up,361,361,test,39,39,TRUE,0
1,mt,1,93,592,TRUE,double,right,neutral,down,592,592,test,39,39,TRUE,0
1,mt,1,94,540,TRUE,center,left,incongruent,down,540,540,test,37,37,TRUE,0
1,mt,1,95,657,TRUE,nocue,right,congruent,down,657,657,test,39,39,TRUE,0
1,mt,1,96,627,TRUE,nocue,right,neutral,up,627,627,test,39,39,TRUE,0
1,mt,1,97,540,TRUE,center,right,neutral,down,540,540,test,39,39,TRUE,0
1,mt,1,98,573,TRUE,double,right,congruent,up,573,573,test,39,39,TRUE,0
1,mt,1,99,520,TRUE,nocue,right,incongruent,up,520,520,test,39,39,TRUE,0
1,mt,1,100,530,TRUE,nocue,right,congruent,up,530,530,test,39,39,TRUE,0
1,mt,1,101,638,TRUE,spatial,right,incongruent,up,638,638,test,39,39,TRUE,0
1,mt,1,102,564,TRUE,nocue,right,congruent,down,564,564,test,39,39,TRUE,0
1,mt,1,103,590,TRUE,double,left,neutral,down,590,590,test,37,37,TRUE,0
1,mt,1,104,593,TRUE,nocue,right,neutral,up,593,593,test,39,39,TRUE,0
1,mt,1,105,616,TRUE,spatial,right,congruent,up,616,616,test,39,39,TRUE,0
1,mt,1,106,543,TRUE,nocue,left,congruent,down,543,543,test,37,37,TRUE,0
1,mt,1,107,451,TRUE,spatial,left,congruent,down,451,451,test,37,37,TRUE,0
1,mt,1,108,558,TRUE,double,left,neutral,up,558,558,test,37,37,TRUE,0
1,mt,1,109,512,TRUE,double,right,congruent,down,512,512,test,39,39,TRUE,0
1,mt,1,110,569,TRUE,center,left,incongruent,down,569,569,test,37,37,TRUE,0
1,mt,1,111,424,TRUE,spatial,left,congruent,up,424,424,test,37,37,TRUE,0
1,mt,1,112,595,TRUE,double,right,incongruent,down,595,595,test,39,39,TRUE,0
1,mt,1,113,484,TRUE,center,left,neutral,up,484,484,test,37,37,TRUE,0
1,mt,1,114,598,TRUE,spatial,left,neutral,up,598,598,test,37,37,TRUE,0
1,mt,1,115,694,TRUE,double,right,incongruent,up,694,694,test,39,39,TRUE,0
1,mt,1,116,497,TRUE,center,left,congruent,down,497,497,test,37,37,TRUE,0
1,mt,1,117,522,TRUE,center,right,incongruent,up,522,522,test,39,39,TRUE,0
1,mt,1,118,506,TRUE,double,left,congruent,down,506,506,test,37,37,TRUE,0
1,mt,1,119,635,TRUE,center,right,congruent,up,635,635,test,39,39,TRUE,0
1,mt,1,120,598,TRUE,double,left,incongruent,up,598,598,test,37,37,TRUE,0
1,mt,1,121,574,TRUE,double,right,neutral,up,574,574,test,39,39,TRUE,0
1,mt,1,122,587,TRUE,spatial,right,incongruent,down,587,587,test,39,39,TRUE,0
1,mt,1,123,567,TRUE,center,right,neutral,up,567,567,test,39,39,TRUE,0
1,mt,1,124,557,TRUE,nocue,right,neutral,down,557,557,test,39,39,TRUE,0
1,mt,1,125,642,TRUE,center,left,neutral,down,642,642,test,37,37,TRUE,0
1,mt,1,126,452,TRUE,spatial,left,incongruent,up,452,452,test,37,37,TRUE,0
1,mt,1,127,774,TRUE,nocue,left,incongruent,down,774,774,test,37,37,TRUE,0
1,mt,1,128,542,TRUE,center,right,incongruent,down,542,542,test,39,39,TRUE,0
1,mt,1,129,588,TRUE,nocue,right,incongruent,down,588,588,test,39,39,TRUE,0
1,mt,1,130,520,TRUE,spatial,right,congruent,down,520,520,test,39,39,TRUE,0
1,mt,1,131,487,TRUE,spatial,right,neutral,down,487,487,test,39,39,TRUE,0
1,mt,1,132,669,TRUE,nocue,left,congruent,up,669,669,test,37,37,TRUE,0
1,mt,1,133,627,TRUE,double,left,incongruent,down,627,627,test,37,37,TRUE,0
1,mt,1,134,671,TRUE,center,left,incongruent,up,671,671,test,37,37,TRUE,0
1,mt,1,135,480,TRUE,center,right,congruent,down,480,480,test,39,39,TRUE,0
1,mt,1,136,584,TRUE,center,left,congruent,up,584,584,test,37,37,TRUE,0
1,mt,1,137,617,TRUE,spatial,right,neutral,up,617,617,test,39,39,TRUE,0
1,mt,1,138,569,TRUE,nocue,left,neutral,down,569,569,test,37,37,TRUE,0
1,mt,1,139,407,TRUE,spatial,left,neutral,down,407,407,test,37,37,TRUE,0
1,mt,1,140,444,TRUE,double,left,congruent,up,444,444,test,37,37,TRUE,0
1,mt,1,141,643,TRUE,nocue,left,neutral,up,643,643,test,37,37,TRUE,0
1,mt,1,142,700,TRUE,spatial,left,incongruent,down,700,700,test,37,37,TRUE,0
1,mt,1,143,592,TRUE,double,right,neutral,down,592,592,test,39,39,TRUE,0
1,mt,1,144,527,TRUE,nocue,left,incongruent,up,527,527,test,37,37,TRUE,0
1,mt,2,1,418,TRUE,spatial,right,congruent,down,418,418,test,39,39,TRUE,0
1,mt,2,2,532,TRUE,nocue,left,incongruent,up,532,532,test,37,37,TRUE,0
1,mt,2,3,486,TRUE,center,right,congruent,down,486,486,test,39,39,TRUE,0
1,mt,2,4,554,TRUE,double,right,incongruent,up,554,554,test,39,39,TRUE,0
1,mt,2,5,677,TRUE,center,right,neutral,up,677,677,test,39,39,TRUE,0
1,mt,2,6,673,TRUE,center,left,congruent,down,673,673,test,37,37,TRUE,0
1,mt,2,7,654,TRUE,double,left,incongruent,down,654,654,test,37,37,TRUE,0
1,mt,2,8,589,TRUE,double,right,congruent,up,589,589,test,39,39,TRUE,0
1,mt,2,9,665,TRUE,center,right,incongruent,down,665,665,test,39,39,TRUE,0
1,mt,2,10,638,TRUE,nocue,left,congruent,up,638,638,test,37,37,TRUE,0
1,mt,2,11,548,TRUE,spatial,right,incongruent,down,548,548,test,39,39,TRUE,0
1,mt,2,12,570,TRUE,nocue,right,incongruent,down,570,570,test,39,39,TRUE,0
1,mt,2,13,533,TRUE,double,right,neutral,down,533,533,test,39,39,TRUE,0
1,mt,2,14,798,TRUE,nocue,right,incongruent,up,798,798,test,39,39,TRUE,0
1,mt,2,15,634,TRUE,center,left,incongruent,down,634,634,test,37,37,TRUE,0
1,mt,2,16,536,TRUE,center,left,incongruent,up,536,536,test,37,37,TRUE,0
1,mt,2,17,565,TRUE,nocue,right,neutral,down,565,565,test,39,39,TRUE,0
1,mt,2,18,736,TRUE,nocue,left,neutral,down,736,736,test,37,37,TRUE,0
1,mt,2,19,508,TRUE,spatial,right,congruent,up,508,508,test,39,39,TRUE,0
1,mt,2,20,613,TRUE,center,left,congruent,up,613,613,test,37,37,TRUE,0
1,mt,2,21,562,TRUE,nocue,right,neutral,up,562,562,test,39,39,TRUE,0
1,mt,2,22,552,TRUE,center,left,neutral,up,552,552,test,37,37,TRUE,0
1,mt,2,23,513,TRUE,double,right,incongruent,down,513,513,test,39,39,TRUE,0
1,mt,2,24,378,TRUE,double,left,neutral,down,378,378,test,37,37,TRUE,0
1,mt,2,25,536,TRUE,spatial,right,neutral,up,536,536,test,39,39,TRUE,0
1,mt,2,26,520,TRUE,center,right,incongruent,up,520,520,test,39,39,TRUE,0
1,mt,2,27,577,TRUE,double,left,congruent,up,577,577,test,37,37,TRUE,0
1,mt,2,28,617,TRUE,spatial,left,incongruent,down,617,617,test,37,37,TRUE,0
1,mt,2,29,616,TRUE,spatial,right,neutral,down,616,616,test,39,39,TRUE,0
1,mt,2,30,453,TRUE,spatial,right,incongruent,up,453,453,test,39,39,TRUE,0
1,mt,2,31,464,TRUE,double,left,congruent,down,464,464,test,37,37,TRUE,0
1,mt,2,32,404,TRUE,spatial,left,neutral,down,404,404,test,37,37,TRUE,0
1,mt,2,33,526,TRUE,double,left,neutral,up,526,526,test,37,37,TRUE,0
1,mt,2,34,521,TRUE,spatial,left,neutral,up,521,521,test,37,37,TRUE,0
1,mt,2,35,471,TRUE,spatial,left,congruent,up,471,471,test,37,37,TRUE,0
1,mt,2,36,500,TRUE,nocue,left,congruent,down,500,500,test,37,37,TRUE,0
1,mt,2,37,461,TRUE,center,left,neutral,down,461,461,test,37,37,TRUE,0
1,mt,2,38,347,TRUE,spatial,left,incongruent,up,347,347,test,37,37,TRUE,0
1,mt,2,39,775,TRUE,double,right,congruent,down,775,775,test,39,39,TRUE,0
1,mt,2,40,620,TRUE,double,right,neutral,up,620,620,test,39,39,TRUE,0
1,mt,2,41,588,TRUE,double,left,incongruent,up,588,588,test,37,37,TRUE,0
1,mt,2,42,638,TRUE,nocue,left,incongruent,down,638,638,test,37,37,TRUE,0
1,mt,2,44,611,TRUE,center,right,congruent,up,611,611,test,39,39,TRUE,0
1,mt,2,45,391,TRUE,spatial,left,congruent,down,391,391,test,37,37,TRUE,0
1,mt,2,46,714,TRUE,nocue,left,neutral,up,714,714,test,37,37,TRUE,0
1,mt,2,47,504,TRUE,center,right,neutral,down,504,504,test,39,39,TRUE,0
1,mt,2,48,693,TRUE,nocue,right,congruent,down,693,693,test,39,39,TRUE,0
1,mt,2,49,672,TRUE,center,right,incongruent,down,672,672,test,39,39,TRUE,0
1,mt,2,50,545,TRUE,double,right,congruent,up,545,545,test,39,39,TRUE,0
1,mt,2,51,518,TRUE,nocue,right,congruent,down,518,518,test,39,39,TRUE,0
1,mt,2,52,456,TRUE,spatial,left,incongruent,up,456,456,test,37,37,TRUE,0
1,mt,2,53,646,TRUE,double,right,neutral,down,646,646,test,39,39,TRUE,0
1,mt,2,54,803,TRUE,nocue,right,incongruent,up,803,803,test,39,39,TRUE,0
1,mt,2,55,406,TRUE,spatial,right,congruent,down,406,406,test,39,39,TRUE,0
1,mt,2,56,619,TRUE,nocue,right,incongruent,down,619,619,test,39,39,TRUE,0
1,mt,2,57,664,TRUE,center,right,incongruent,up,664,664,test,39,39,TRUE,0
1,mt,2,58,494,TRUE,double,left,incongruent,up,494,494,test,37,37,TRUE,0
1,mt,2,59,774,TRUE,nocue,left,neutral,down,774,774,test,37,37,TRUE,0
1,mt,2,60,713,TRUE,nocue,left,incongruent,up,713,713,test,37,37,TRUE,0
1,mt,2,61,424,TRUE,spatial,left,congruent,down,424,424,test,37,37,TRUE,0
1,mt,2,62,579,TRUE,double,left,neutral,up,579,579,test,37,37,TRUE,0
1,mt,2,63,472,TRUE,center,left,neutral,down,472,472,test,37,37,TRUE,0
1,mt,2,64,697,TRUE,double,right,neutral,up,697,697,test,39,39,TRUE,0
1,mt,2,65,466,TRUE,spatial,right,congruent,up,466,466,test,39,39,TRUE,0
1,mt,2,66,694,TRUE,center,right,congruent,down,694,694,test,39,39,TRUE,0
1,mt,2,67,491,TRUE,spatial,right,incongruent,down,491,491,test,39,39,TRUE,0
1,mt,2,68,451,TRUE,double,left,congruent,up,451,451,test,37,37,TRUE,0
1,mt,2,69,430,TRUE,spatial,left,congruent,up,430,430,test,37,37,TRUE,0
1,mt,2,70,442,TRUE,center,left,congruent,up,442,442,test,37,37,TRUE,0
1,mt,2,71,850,TRUE,nocue,right,neutral,up,850,850,test,39,39,TRUE,0
1,mt,2,72,464,TRUE,spatial,right,neutral,down,464,464,test,39,39,TRUE,0
1,mt,2,73,650,TRUE,nocue,right,congruent,up,650,650,test,39,39,TRUE,0
1,mt,2,74,686,TRUE,center,right,neutral,down,686,686,test,39,39,TRUE,0
1,mt,2,75,591,TRUE,nocue,left,congruent,up,591,591,test,37,37,TRUE,0
1,mt,2,76,510,TRUE,double,left,neutral,down,510,510,test,37,37,TRUE,0
1,mt,2,77,406,TRUE,spatial,left,neutral,up,406,406,test,37,37,TRUE,0
1,mt,2,78,650,TRUE,spatial,right,incongruent,up,650,650,test,39,39,TRUE,0
1,mt,2,79,521,TRUE,double,left,congruent,down,521,521,test,37,37,TRUE,0
1,mt,2,80,509,TRUE,center,right,neutral,up,509,509,test,39,39,TRUE,0
1,mt,2,81,459,TRUE,center,left,neutral,up,459,459,test,37,37,TRUE,0
1,mt,2,82,528,TRUE,double,right,incongruent,down,528,528,test,39,39,TRUE,0
1,mt,2,83,646,TRUE,nocue,left,incongruent,down,646,646,test,37,37,TRUE,0
1,mt,2,84,518,TRUE,center,left,incongruent,down,518,518,test,37,37,TRUE,0
1,mt,2,85,389,TRUE,double,right,incongruent,up,389,389,test,39,39,TRUE,0
1,mt,2,86,299,TRUE,spatial,right,neutral,up,299,299,test,39,39,TRUE,0
1,mt,2,87,572,TRUE,center,right,congruent,up,572,572,test,39,39,TRUE,0
1,mt,2,88,401,TRUE,spatial,left,neutral,down,401,401,test,37,37,TRUE,0
1,mt,2,89,525,TRUE,nocue,right,neutral,down,525,525,test,39,39,TRUE,0
1,mt,2,90,469,TRUE,center,left,congruent,down,469,469,test,37,37,TRUE,0
1,mt,2,91,511,TRUE,nocue,left,neutral,up,511,511,test,37,37,TRUE,0
1,mt,2,92,367,TRUE,spatial,left,incongruent,down,367,367,test,37,37,TRUE,0
1,mt,2,93,438,TRUE,center,left,incongruent,up,438,438,test,37,37,TRUE,0
1,mt,2,94,432,TRUE,double,left,incongruent,down,432,432,test,37,37,TRUE,0
1,mt,2,95,578,TRUE,double,right,congruent,down,578,578,test,39,39,TRUE,0
1,mt,2,96,530,TRUE,nocue,left,congruent,down,530,530,test,37,37,TRUE,0
1,mt,2,97,560,TRUE,nocue,left,congruent,up,560,560,test,37,37,TRUE,0
1,mt,2,98,495,TRUE,spatial,right,neutral,up,495,495,test,39,39,TRUE,0
1,mt,2,99,568,TRUE,double,right,incongruent,down,568,568,test,39,39,TRUE,0
1,mt,2,100,347,TRUE,spatial,left,incongruent,down,347,347,test,37,37,TRUE,0
1,mt,2,101,491,TRUE,double,left,incongruent,down,491,491,test,37,37,TRUE,0
1,mt,2,102,326,TRUE,spatial,right,congruent,down,326,326,test,39,39,TRUE,0
1,mt,2,103,705,TRUE,nocue,right,congruent,down,705,705,test,39,39,TRUE,0
1,mt,2,104,482,TRUE,spatial,left,congruent,down,482,482,test,37,37,TRUE,0
1,mt,2,105,670,TRUE,nocue,left,congruent,down,670,670,test,37,37,TRUE,0
1,mt,2,106,574,TRUE,double,right,neutral,up,574,574,test,39,39,TRUE,0
1,mt,2,107,492,TRUE,spatial,right,incongruent,down,492,492,test,39,39,TRUE,0
1,mt,2,108,525,TRUE,nocue,left,neutral,down,525,525,test,37,37,TRUE,0
1,mt,2,109,669,TRUE,nocue,right,congruent,up,669,669,test,39,39,TRUE,0
1,mt,2,110,476,TRUE,double,left,congruent,up,476,476,test,37,37,TRUE,0
1,mt,2,111,390,TRUE,spatial,right,neutral,down,390,390,test,39,39,TRUE,0
1,mt,2,112,590,TRUE,double,left,incongruent,up,590,590,test,37,37,TRUE,0
1,mt,2,113,527,TRUE,center,right,congruent,down,527,527,test,39,39,TRUE,0
1,mt,2,114,685,TRUE,nocue,right,neutral,up,685,685,test,39,39,TRUE,0
1,mt,2,115,533,TRUE,nocue,left,incongruent,up,533,533,test,37,37,TRUE,0
1,mt,2,116,516,TRUE,nocue,right,incongruent,up,516,516,test,39,39,TRUE,0
1,mt,2,117,465,TRUE,center,left,neutral,down,465,465,test,37,37,TRUE,0
1,mt,2,118,294,TRUE,spatial,right,incongruent,up,294,294,test,39,39,TRUE,0
1,mt,2,119,575,TRUE,double,right,incongruent,up,575,575,test,39,39,TRUE,0
1,mt,2,120,437,TRUE,center,left,congruent,down,437,437,test,37,37,TRUE,0
1,mt,2,121,532,TRUE,double,left,neutral,down,532,532,test,37,37,TRUE,0
1,mt,2,122,311,TRUE,spatial,right,congruent,up,311,311,test,39,39,TRUE,0
1,mt,2,123,595,TRUE,center,right,incongruent,up,595,595,test,39,39,TRUE,0
1,mt,2,124,488,TRUE,spatial,left,congruent,up,488,488,test,37,37,TRUE,0
1,mt,2,125,571,TRUE,double,right,congruent,down,571,571,test,39,39,TRUE,0
1,mt,2,126,550,TRUE,center,left,incongruent,down,550,550,test,37,37,TRUE,0
1,mt,2,127,544,TRUE,nocue,left,incongruent,down,544,544,test,37,37,TRUE,0
1,mt,2,129,531,TRUE,center,left,neutral,up,531,531,test,37,37,TRUE,0
1,mt,2,130,549,TRUE,center,left,incongruent,up,549,549,test,37,37,TRUE,0
1,mt,2,131,738,TRUE,nocue,left,neutral,up,738,738,test,37,37,TRUE,0
1,mt,2,132,448,TRUE,spatial,left,incongruent,up,448,448,test,37,37,TRUE,0
1,mt,2,133,618,TRUE,center,right,congruent,up,618,618,test,39,39,TRUE,0
1,mt,2,134,557,TRUE,double,right,neutral,down,557,557,test,39,39,TRUE,0
1,mt,2,135,616,TRUE,center,right,incongruent,down,616,616,test,39,39,TRUE,0
1,mt,2,136,523,TRUE,double,right,congruent,up,523,523,test,39,39,TRUE,0
1,mt,2,137,489,TRUE,center,right,neutral,up,489,489,test,39,39,TRUE,0
1,mt,2,138,459,TRUE,spatial,left,neutral,down,459,459,test,37,37,TRUE,0
1,mt,2,139,542,TRUE,nocue,right,neutral,down,542,542,test,39,39,TRUE,0
1,mt,2,140,500,TRUE,center,left,congruent,up,500,500,test,37,37,TRUE,0
1,mt,2,141,550,TRUE,double,left,congruent,down,550,550,test,37,37,TRUE,0
1,mt,2,142,410,TRUE,spatial,left,neutral,up,410,410,test,37,37,TRUE,0
1,mt,2,143,607,TRUE,double,left,neutral,up,607,607,test,37,37,TRUE,0
1,mt,2,144,579,TRUE,center,right,neutral,down,579,579,test,39,39,TRUE,0
46,mt,1,1,546,TRUE,double,left,congruent,up,546,546,test,37,37,TRUE,0
46,mt,1,2,575,TRUE,spatial,left,congruent,down,575,575,test,37,37,TRUE,0
46,mt,1,3,499,TRUE,nocue,right,congruent,up,499,499,test,39,39,TRUE,0
46,mt,1,4,641,TRUE,spatial,left,neutral,down,641,641,test,37,37,TRUE,0
46,mt,1,5,666,TRUE,double,right,neutral,down,666,666,test,39,39,TRUE,0
46,mt,1,6,571,TRUE,nocue,left,congruent,up,571,571,test,37,37,TRUE,0
46,mt,1,7,551,TRUE,center,left,incongruent,down,551,551,test,37,37,TRUE,0
46,mt,1,8,561,TRUE,spatial,left,incongruent,down,561,561,test,37,37,TRUE,0
46,mt,1,9,745,TRUE,double,left,incongruent,up,745,745,test,37,37,TRUE,0
46,mt,1,10,542,TRUE,nocue,left,neutral,up,542,542,test,37,37,TRUE,0
46,mt,1,11,553,TRUE,spatial,right,incongruent,up,553,553,test,39,39,TRUE,0
46,mt,1,12,532,TRUE,center,right,incongruent,down,532,532,test,39,39,TRUE,0
46,mt,1,13,593,TRUE,spatial,right,congruent,up,593,593,test,39,39,TRUE,0
46,mt,1,14,516,TRUE,center,right,neutral,down,516,516,test,39,39,TRUE,0
46,mt,1,15,529,TRUE,double,right,incongruent,up,529,529,test,39,39,TRUE,0
46,mt,1,16,729,TRUE,nocue,right,neutral,down,729,729,test,39,39,TRUE,0
46,mt,1,17,532,TRUE,center,left,congruent,down,532,532,test,37,37,TRUE,0
46,mt,1,18,631,TRUE,nocue,right,congruent,down,631,631,test,39,39,TRUE,0
46,mt,1,19,614,TRUE,spatial,left,neutral,up,614,614,test,37,37,TRUE,0
46,mt,1,20,484,TRUE,double,left,neutral,up,484,484,test,37,37,TRUE,0
46,mt,1,21,596,TRUE,spatial,right,incongruent,down,596,596,test,39,39,TRUE,0
46,mt,1,22,389,TRUE,double,right,congruent,up,389,389,test,39,39,TRUE,0
46,mt,1,23,523,TRUE,center,left,congruent,up,523,523,test,37,37,TRUE,0
46,mt,1,24,556,TRUE,nocue,left,incongruent,down,556,556,test,37,37,TRUE,0
46,mt,1,25,602,TRUE,spatial,right,neutral,up,602,602,test,39,39,TRUE,0
46,mt,1,26,638,TRUE,double,right,incongruent,down,638,638,test,39,39,TRUE,0
46,mt,1,27,510,TRUE,double,left,neutral,down,510,510,test,37,37,TRUE,0
46,mt,1,28,587,TRUE,nocue,right,incongruent,up,587,587,test,39,39,TRUE,0
46,mt,1,29,468,TRUE,center,right,congruent,up,468,468,test,39,39,TRUE,0
46,mt,1,30,546,TRUE,nocue,left,congruent,down,546,546,test,37,37,TRUE,0
46,mt,1,31,644,TRUE,nocue,left,incongruent,up,644,644,test,37,37,TRUE,0
46,mt,1,32,539,TRUE,spatial,right,congruent,down,539,539,test,39,39,TRUE,0
46,mt,1,33,554,TRUE,double,left,incongruent,down,554,554,test,37,37,TRUE,0
46,mt,1,34,613,TRUE,center,left,incongruent,up,613,613,test,37,37,TRUE,0
46,mt,1,35,571,TRUE,center,left,neutral,down,571,571,test,37,37,TRUE,0
46,mt,1,36,460,TRUE,spatial,left,incongruent,up,460,460,test,37,37,TRUE,0
46,mt,1,37,557,TRUE,center,right,incongruent,up,557,557,test,39,39,TRUE,0
46,mt,1,38,480,TRUE,center,right,neutral,up,480,480,test,39,39,TRUE,0
46,mt,1,39,565,TRUE,spatial,right,neutral,down,565,565,test,39,39,TRUE,0
46,mt,1,40,633,TRUE,double,left,congruent,down,633,633,test,37,37,TRUE,0
46,mt,1,41,553,TRUE,nocue,right,neutral,up,553,553,test,39,39,TRUE,0
46,mt,1,42,668,TRUE,center,right,congruent,down,668,668,test,39,39,TRUE,0
46,mt,1,43,772,TRUE,nocue,right,incongruent,down,772,772,test,39,39,TRUE,0
46,mt,1,44,571,TRUE,center,left,neutral,up,571,571,test,37,37,TRUE,0
46,mt,1,45,626,TRUE,double,right,congruent,down,626,626,test,39,39,TRUE,0
46,mt,1,46,550,TRUE,spatial,left,congruent,up,550,550,test,37,37,TRUE,0
46,mt,1,47,627,TRUE,nocue,left,neutral,down,627,627,test,37,37,TRUE,0
46,mt,1,48,534,TRUE,double,right,neutral,up,534,534,test,39,39,TRUE,0
46,mt,1,49,516,TRUE,nocue,left,incongruent,up,516,516,test,37,37,TRUE,0
46,mt,1,50,422,TRUE,spatial,left,congruent,down,422,422,test,37,37,TRUE,0
46,mt,1,51,493,TRUE,spatial,right,neutral,down,493,493,test,39,39,TRUE,0
46,mt,1,52,500,TRUE,nocue,left,congruent,down,500,500,test,37,37,TRUE,0
46,mt,1,53,513,TRUE,center,right,neutral,down,513,513,test,39,39,TRUE,0
46,mt,1,54,676,TRUE,nocue,right,neutral,up,676,676,test,39,39,TRUE,0
46,mt,1,55,408,TRUE,spatial,left,neutral,down,408,408,test,37,37,TRUE,0
46,mt,1,56,544,TRUE,nocue,right,incongruent,down,544,544,test,39,39,TRUE,0
46,mt,1,57,388,TRUE,spatial,left,incongruent,up,388,388,test,37,37,TRUE,0
46,mt,1,58,491,TRUE,double,right,congruent,down,491,491,test,39,39,TRUE,0
46,mt,1,59,462,TRUE,spatial,right,congruent,down,462,462,test,39,39,TRUE,0
46,mt,1,60,551,TRUE,center,right,incongruent,up,551,551,test,39,39,TRUE,0
46,mt,1,61,542,TRUE,center,right,incongruent,down,542,542,test,39,39,TRUE,0
46,mt,1,62,628,TRUE,double,left,incongruent,up,628,628,test,37,37,TRUE,0
46,mt,1,63,457,TRUE,center,right,congruent,up,457,457,test,39,39,TRUE,0
46,mt,1,64,426,TRUE,double,right,incongruent,up,426,426,test,39,39,TRUE,0
46,mt,1,66,736,TRUE,spatial,left,incongruent,down,736,736,test,37,37,TRUE,0
46,mt,1,67,655,TRUE,nocue,left,incongruent,down,655,655,test,37,37,TRUE,0
46,mt,1,68,548,TRUE,spatial,right,neutral,up,548,548,test,39,39,TRUE,0
46,mt,1,69,543,TRUE,spatial,left,congruent,up,543,543,test,37,37,TRUE,0
46,mt,1,70,506,TRUE,nocue,right,congruent,up,506,506,test,39,39,TRUE,0
46,mt,1,71,567,TRUE,double,left,incongruent,down,567,567,test,37,37,TRUE,0
46,mt,1,72,510,TRUE,double,left,neutral,down,510,510,test,37,37,TRUE,0
46,mt,1,73,602,TRUE,spatial,left,neutral,up,602,602,test,37,37,TRUE,0
46,mt,1,74,529,TRUE,nocue,right,congruent,down,529,529,test,39,39,TRUE,0
46,mt,1,75,576,TRUE,double,left,congruent,down,576,576,test,37,37,TRUE,0
46,mt,1,76,523,TRUE,center,left,neutral,up,523,523,test,37,37,TRUE,0
46,mt,1,77,527,TRUE,double,left,neutral,up,527,527,test,37,37,TRUE,0
46,mt,1,78,623,TRUE,nocue,left,neutral,up,623,623,test,37,37,TRUE,0
46,mt,1,79,533,TRUE,center,right,congruent,down,533,533,test,39,39,TRUE,0
46,mt,1,80,557,TRUE,double,left,congruent,up,557,557,test,37,37,TRUE,0
46,mt,1,81,481,TRUE,center,left,neutral,down,481,481,test,37,37,TRUE,0
46,mt,1,82,522,TRUE,double,right,neutral,down,522,522,test,39,39,TRUE,0
46,mt,1,83,560,TRUE,center,left,congruent,down,560,560,test,37,37,TRUE,0
46,mt,1,84,479,TRUE,nocue,left,congruent,up,479,479,test,37,37,TRUE,0
46,mt,1,85,633,TRUE,center,left,incongruent,up,633,633,test,37,37,TRUE,0
46,mt,1,86,522,TRUE,nocue,left,neutral,down,522,522,test,37,37,TRUE,0
46,mt,1,87,604,TRUE,nocue,right,neutral,down,604,604,test,39,39,TRUE,0
46,mt,1,88,523,TRUE,center,left,congruent,up,523,523,test,37,37,TRUE,0
46,mt,1,89,622,TRUE,double,right,incongruent,down,622,622,test,39,39,TRUE,0
46,mt,1,90,486,TRUE,double,right,congruent,up,486,486,test,39,39,TRUE,0
46,mt,1,91,528,TRUE,spatial,right,incongruent,down,528,528,test,39,39,TRUE,0
46,mt,1,92,524,TRUE,center,right,neutral,up,524,524,test,39,39,TRUE,0
46,mt,1,93,511,TRUE,spatial,right,incongruent,up,511,511,test,39,39,TRUE,0
46,mt,1,94,559,TRUE,spatial,right,congruent,up,559,559,test,39,39,TRUE,0
46,mt,1,95,554,TRUE,center,left,incongruent,down,554,554,test,37,37,TRUE,0
46,mt,1,96,575,TRUE,nocue,right,incongruent,up,575,575,test,39,39,TRUE,0
46,mt,1,97,396,TRUE,spatial,right,congruent,up,396,396,test,39,39,TRUE,0
46,mt,1,98,441,TRUE,center,right,congruent,down,441,441,test,39,39,TRUE,0
46,mt,1,99,601,TRUE,double,left,congruent,up,601,601,test,37,37,TRUE,0
46,mt,1,100,556,TRUE,spatial,right,neutral,up,556,556,test,39,39,TRUE,0
46,mt,1,101,596,TRUE,center,left,incongruent,up,596,596,test,37,37,TRUE,0
46,mt,1,102,424,TRUE,center,right,neutral,down,424,424,test,39,39,TRUE,0
46,mt,1,103,552,TRUE,nocue,right,neutral,up,552,552,test,39,39,TRUE,0
46,mt,1,104,412,TRUE,spatial,left,neutral,up,412,412,test,37,37,TRUE,0
46,mt,1,105,480,TRUE,center,right,congruent,up,480,480,test,39,39,TRUE,0
46,mt,1,106,603,TRUE,spatial,right,incongruent,down,603,603,test,39,39,TRUE,0
46,mt,1,107,524,TRUE,nocue,left,neutral,up,524,524,test,37,37,TRUE,0
46,mt,1,108,496,TRUE,double,right,neutral,up,496,496,test,39,39,TRUE,0
46,mt,1,109,427,TRUE,double,right,congruent,up,427,427,test,39,39,TRUE,0
46,mt,1,110,538,TRUE,double,left,incongruent,down,538,538,test,37,37,TRUE,0
46,mt,1,111,581,TRUE,nocue,right,congruent,down,581,581,test,39,39,TRUE,0
46,mt,1,112,537,TRUE,nocue,left,congruent,down,537,537,test,37,37,TRUE,0
46,mt,1,113,480,TRUE,double,left,neutral,up,480,480,test,37,37,TRUE,0
46,mt,1,114,496,TRUE,center,right,incongruent,up,496,496,test,39,39,TRUE,0
46,mt,1,115,403,TRUE,spatial,right,neutral,down,403,403,test,39,39,TRUE,0
46,mt,1,116,693,TRUE,nocue,right,incongruent,down,693,693,test,39,39,TRUE,0
46,mt,1,117,478,TRUE,spatial,left,incongruent,down,478,478,test,37,37,TRUE,0
46,mt,1,118,509,TRUE,double,right,incongruent,down,509,509,test,39,39,TRUE,0
46,mt,1,119,603,TRUE,nocue,right,neutral,down,603,603,test,39,39,TRUE,0
46,mt,1,120,655,TRUE,spatial,left,congruent,up,655,655,test,37,37,TRUE,0
46,mt,1,121,537,TRUE,double,left,incongruent,up,537,537,test,37,37,TRUE,0
46,mt,1,122,578,TRUE,spatial,left,congruent,down,578,578,test,37,37,TRUE,0
46,mt,1,123,490,TRUE,double,right,congruent,down,490,490,test,39,39,TRUE,0
46,mt,1,124,496,TRUE,spatial,right,incongruent,up,496,496,test,39,39,TRUE,0
46,mt,1,125,449,TRUE,double,right,neutral,down,449,449,test,39,39,TRUE,0
46,mt,1,126,660,TRUE,nocue,right,incongruent,up,660,660,test,39,39,TRUE,0
46,mt,1,127,548,TRUE,nocue,left,neutral,down,548,548,test,37,37,TRUE,0
46,mt,1,128,572,TRUE,center,left,neutral,up,572,572,test,37,37,TRUE,0
46,mt,1,129,493,TRUE,spatial,left,incongruent,up,493,493,test,37,37,TRUE,0
46,mt,1,130,719,TRUE,center,right,neutral,up,719,719,test,39,39,TRUE,0
46,mt,1,131,583,TRUE,center,left,congruent,down,583,583,test,37,37,TRUE,0
46,mt,1,132,434,TRUE,spatial,left,neutral,down,434,434,test,37,37,TRUE,0
46,mt,1,133,425,TRUE,double,right,incongruent,up,425,425,test,39,39,TRUE,0
46,mt,1,134,517,TRUE,double,left,congruent,down,517,517,test,37,37,TRUE,0
46,mt,1,135,485,TRUE,nocue,right,congruent,up,485,485,test,39,39,TRUE,0
46,mt,1,136,577,TRUE,nocue,left,congruent,up,577,577,test,37,37,TRUE,0
46,mt,1,137,545,TRUE,center,right,incongruent,down,545,545,test,39,39,TRUE,0
46,mt,1,138,526,TRUE,center,left,congruent,up,526,526,test,37,37,TRUE,0
46,mt,1,139,573,TRUE,double,left,neutral,down,573,573,test,37,37,TRUE,0
46,mt,1,140,666,TRUE,center,left,incongruent,down,666,666,test,37,37,TRUE,0
46,mt,1,141,639,TRUE,nocue,left,incongruent,up,639,639,test,37,37,TRUE,0
46,mt,1,143,448,TRUE,spatial,right,congruent,down,448,448,test,39,39,TRUE,0
46,mt,1,144,491,TRUE,nocue,left,incongruent,down,491,491,test,37,37,TRUE,0
46,mt,2,1,374,TRUE,double,left,neutral,up,374,374,test,37,37,TRUE,0
46,mt,2,2,599,TRUE,center,right,congruent,up,599,599,test,39,39,TRUE,0
46,mt,2,3,471,TRUE,spatial,right,congruent,down,471,471,test,39,39,TRUE,0
46,mt,2,4,525,TRUE,center,left,neutral,up,525,525,test,37,37,TRUE,0
46,mt,2,5,603,TRUE,center,left,incongruent,down,603,603,test,37,37,TRUE,0
46,mt,2,6,590,TRUE,nocue,right,congruent,up,590,590,test,39,39,TRUE,0
46,mt,2,7,487,TRUE,double,left,neutral,down,487,487,test,37,37,TRUE,0
46,mt,2,8,527,TRUE,spatial,left,incongruent,down,527,527,test,37,37,TRUE,0
46,mt,2,9,438,TRUE,double,left,incongruent,down,438,438,test,37,37,TRUE,0
46,mt,2,10,474,TRUE,double,left,congruent,down,474,474,test,37,37,TRUE,0
46,mt,2,11,722,TRUE,nocue,left,congruent,down,722,722,test,37,37,TRUE,0
46,mt,2,12,488,TRUE,center,right,neutral,up,488,488,test,39,39,TRUE,0
46,mt,2,13,656,TRUE,center,left,incongruent,up,656,656,test,37,37,TRUE,0
46,mt,2,14,606,TRUE,nocue,right,neutral,down,606,606,test,39,39,TRUE,0
46,mt,2,15,686,TRUE,nocue,right,neutral,up,686,686,test,39,39,TRUE,0
46,mt,2,16,468,TRUE,spatial,right,neutral,up,468,468,test,39,39,TRUE,0
46,mt,2,17,624,TRUE,nocue,left,incongruent,up,624,624,test,37,37,TRUE,0
46,mt,2,18,509,TRUE,spatial,right,incongruent,down,509,509,test,39,39,TRUE,0
46,mt,2,19,508,TRUE,spatial,left,incongruent,up,508,508,test,37,37,TRUE,0
46,mt,2,20,643,TRUE,nocue,left,congruent,up,643,643,test,37,37,TRUE,0
46,mt,2,21,584,TRUE,nocue,right,incongruent,down,584,584,test,39,39,TRUE,0
46,mt,2,22,546,TRUE,center,left,congruent,down,546,546,test,37,37,TRUE,0
46,mt,2,23,561,TRUE,spatial,right,congruent,up,561,561,test,39,39,TRUE,0
46,mt,2,24,676,TRUE,nocue,right,congruent,down,676,676,test,39,39,TRUE,0
46,mt,2,25,410,TRUE,spatial,right,neutral,down,410,410,test,39,39,TRUE,0
46,mt,2,26,519,TRUE,nocue,left,neutral,down,519,519,test,37,37,TRUE,0
46,mt,2,27,492,TRUE,center,right,neutral,down,492,492,test,39,39,TRUE,0
46,mt,2,28,583,TRUE,double,left,congruent,up,583,583,test,37,37,TRUE,0
46,mt,2,29,693,TRUE,nocue,right,incongruent,up,693,693,test,39,39,TRUE,0
46,mt,2,30,537,TRUE,double,right,neutral,down,537,537,test,39,39,TRUE,0
46,mt,2,32,472,TRUE,center,left,congruent,up,472,472,test,37,37,TRUE,0
46,mt,2,33,463,TRUE,double,right,neutral,up,463,463,test,39,39,TRUE,0
46,mt,2,34,493,TRUE,spatial,right,incongruent,up,493,493,test,39,39,TRUE,0
46,mt,2,35,671,TRUE,center,right,incongruent,down,671,671,test,39,39,TRUE,0
46,mt,2,36,622,TRUE,spatial,left,neutral,down,622,622,test,37,37,TRUE,0
46,mt,2,37,572,TRUE,spatial,left,congruent,up,572,572,test,37,37,TRUE,0
46,mt,2,38,531,TRUE,spatial,left,neutral,up,531,531,test,37,37,TRUE,0
46,mt,2,39,558,TRUE,spatial,left,congruent,down,558,558,test,37,37,TRUE,0
46,mt,2,40,563,TRUE,double,right,incongruent,down,563,563,test,39,39,TRUE,0
46,mt,2,41,517,TRUE,center,right,congruent,down,517,517,test,39,39,TRUE,0
46,mt,2,42,524,TRUE,nocue,left,neutral,up,524,524,test,37,37,TRUE,0
46,mt,2,43,571,TRUE,double,right,congruent,up,571,571,test,39,39,TRUE,0
46,mt,2,44,448,TRUE,center,left,neutral,down,448,448,test,37,37,TRUE,0
46,mt,2,45,472,TRUE,double,right,congruent,down,472,472,test,39,39,TRUE,0
46,mt,2,46,515,TRUE,double,left,incongruent,up,515,515,test,37,37,TRUE,0
46,mt,2,47,524,TRUE,nocue,left,incongruent,down,524,524,test,37,37,TRUE,0
46,mt,2,48,608,TRUE,center,right,incongruent,up,608,608,test,39,39,TRUE,0
46,mt,2,49,501,TRUE,double,left,neutral,up,501,501,test,37,37,TRUE,0
46,mt,2,50,457,TRUE,spatial,right,incongruent,down,457,457,test,39,39,TRUE,0
46,mt,2,51,568,TRUE,nocue,right,neutral,up,568,568,test,39,39,TRUE,0
46,mt,2,53,461,TRUE,spatial,right,neutral,down,461,461,test,39,39,TRUE,0
46,mt,2,54,554,TRUE,center,left,incongruent,up,554,554,test,37,37,TRUE,0
46,mt,2,55,514,TRUE,spatial,right,congruent,up,514,514,test,39,39,TRUE,0
46,mt,2,56,552,TRUE,nocue,left,neutral,up,552,552,test,37,37,TRUE,0
46,mt,2,57,544,TRUE,center,right,congruent,down,544,544,test,39,39,TRUE,0
46,mt,2,58,629,TRUE,nocue,left,congruent,down,629,629,test,37,37,TRUE,0
46,mt,2,59,788,TRUE,nocue,right,incongruent,down,788,788,test,39,39,TRUE,0
46,mt,2,60,406,TRUE,spatial,left,incongruent,down,406,406,test,37,37,TRUE,0
46,mt,2,61,433,TRUE,double,left,congruent,down,433,433,test,37,37,TRUE,0
46,mt,2,62,550,TRUE,nocue,right,congruent,down,550,550,test,39,39,TRUE,0
46,mt,2,63,470,TRUE,center,left,neutral,down,470,470,test,37,37,TRUE,0
46,mt,2,64,732,TRUE,nocue,left,incongruent,up,732,732,test,37,37,TRUE,0
46,mt,2,65,553,TRUE,double,right,congruent,up,553,553,test,39,39,TRUE,0
46,mt,2,66,469,TRUE,double,right,congruent,down,469,469,test,39,39,TRUE,0
46,mt,2,67,469,TRUE,double,left,incongruent,down,469,469,test,37,37,TRUE,0
46,mt,2,68,564,TRUE,double,right,neutral,up,564,564,test,39,39,TRUE,0
46,mt,2,69,512,TRUE,spatial,left,neutral,up,512,512,test,37,37,TRUE,0
46,mt,2,70,495,TRUE,double,left,neutral,down,495,495,test,37,37,TRUE,0
46,mt,2,71,505,TRUE,center,right,neutral,up,505,505,test,39,39,TRUE,0
46,mt,2,72,479,TRUE,center,right,congruent,up,479,479,test,39,39,TRUE,0
46,mt,2,73,551,TRUE,spatial,right,incongruent,up,551,551,test,39,39,TRUE,0
46,mt,2,74,418,TRUE,spatial,left,incongruent,up,418,418,test,37,37,TRUE,0
46,mt,2,75,657,TRUE,nocue,left,incongruent,down,657,657,test,37,37,TRUE,0
46,mt,2,76,464,TRUE,center,right,neutral,down,464,464,test,39,39,TRUE,0
46,mt,2,77,449,TRUE,center,left,congruent,down,449,449,test,37,37,TRUE,0
46,mt,2,79,632,TRUE,double,right,incongruent,up,632,632,test,39,39,TRUE,0
46,mt,2,80,703,TRUE,nocue,right,neutral,down,703,703,test,39,39,TRUE,0
46,mt,2,81,527,TRUE,double,left,congruent,up,527,527,test,37,37,TRUE,0
46,mt,2,82,534,TRUE,center,right,incongruent,down,534,534,test,39,39,TRUE,0
46,mt,2,83,531,TRUE,double,left,incongruent,up,531,531,test,37,37,TRUE,0
46,mt,2,84,548,TRUE,double,right,neutral,down,548,548,test,39,39,TRUE,0
46,mt,2,85,581,TRUE,nocue,left,congruent,up,581,581,test,37,37,TRUE,0
46,mt,2,86,424,TRUE,spatial,right,neutral,up,424,424,test,39,39,TRUE,0
46,mt,2,87,459,TRUE,spatial,left,congruent,down,459,459,test,37,37,TRUE,0
46,mt,2,88,729,TRUE,nocue,right,incongruent,up,729,729,test,39,39,TRUE,0
46,mt,2,89,636,TRUE,center,right,incongruent,up,636,636,test,39,39,TRUE,0
46,mt,2,90,649,TRUE,nocue,left,neutral,down,649,649,test,37,37,TRUE,0
46,mt,2,91,475,TRUE,spatial,left,congruent,up,475,475,test,37,37,TRUE,0
46,mt,2,92,427,TRUE,spatial,left,neutral,down,427,427,test,37,37,TRUE,0
46,mt,2,93,493,TRUE,nocue,right,congruent,up,493,493,test,39,39,TRUE,0
46,mt,2,94,563,TRUE,center,left,incongruent,down,563,563,test,37,37,TRUE,0
46,mt,2,95,539,TRUE,center,left,neutral,up,539,539,test,37,37,TRUE,0
46,mt,2,96,658,TRUE,spatial,right,congruent,down,658,658,test,39,39,TRUE,0
46,mt,2,97,570,TRUE,center,right,congruent,down,570,570,test,39,39,TRUE,0
46,mt,2,98,523,TRUE,double,left,congruent,up,523,523,test,37,37,TRUE,0
46,mt,2,99,554,TRUE,double,left,neutral,up,554,554,test,37,37,TRUE,0
46,mt,2,100,554,TRUE,center,right,neutral,down,554,554,test,39,39,TRUE,0
46,mt,2,101,475,TRUE,spatial,right,incongruent,down,475,475,test,39,39,TRUE,0
46,mt,2,102,754,TRUE,center,left,congruent,up,754,754,test,37,37,TRUE,0
46,mt,2,103,422,TRUE,spatial,right,congruent,up,422,422,test,39,39,TRUE,0
46,mt,2,104,542,TRUE,center,left,incongruent,up,542,542,test,37,37,TRUE,0
46,mt,2,105,488,TRUE,center,left,congruent,down,488,488,test,37,37,TRUE,0
46,mt,2,106,556,TRUE,center,right,incongruent,up,556,556,test,39,39,TRUE,0
46,mt,2,107,552,TRUE,double,right,congruent,down,552,552,test,39,39,TRUE,0
46,mt,2,108,504,TRUE,double,left,congruent,down,504,504,test,37,37,TRUE,0
46,mt,2,109,425,TRUE,spatial,left,congruent,down,425,425,test,37,37,TRUE,0
46,mt,2,110,397,TRUE,spatial,left,neutral,up,397,397,test,37,37,TRUE,0
46,mt,2,111,602,TRUE,spatial,right,neutral,up,602,602,test,39,39,TRUE,0
46,mt,2,112,630,TRUE,nocue,right,congruent,up,630,630,test,39,39,TRUE,0
46,mt,2,113,487,TRUE,double,right,congruent,up,487,487,test,39,39,TRUE,0
46,mt,2,114,469,TRUE,nocue,left,congruent,down,469,469,test,37,37,TRUE,0
46,mt,2,115,525,TRUE,center,left,neutral,up,525,525,test,37,37,TRUE,0
46,mt,2,116,606,TRUE,double,left,neutral,down,606,606,test,37,37,TRUE,0
46,mt,2,117,546,TRUE,nocue,right,neutral,down,546,546,test,39,39,TRUE,0
46,mt,2,118,488,TRUE,nocue,right,neutral,up,488,488,test,39,39,TRUE,0
46,mt,2,119,717,TRUE,nocue,left,congruent,up,717,717,test,37,37,TRUE,0
46,mt,2,120,413,TRUE,spatial,left,neutral,down,413,413,test,37,37,TRUE,0
46,mt,2,121,527,TRUE,double,right,neutral,up,527,527,test,39,39,TRUE,0
46,mt,2,122,496,TRUE,spatial,left,incongruent,up,496,496,test,37,37,TRUE,0
46,mt,2,123,581,TRUE,nocue,left,neutral,down,581,581,test,37,37,TRUE,0
46,mt,2,124,440,TRUE,spatial,right,neutral,down,440,440,test,39,39,TRUE,0
46,mt,2,125,577,TRUE,nocue,right,incongruent,down,577,577,test,39,39,TRUE,0
46,mt,2,126,539,TRUE,center,right,neutral,up,539,539,test,39,39,TRUE,0
46,mt,2,127,501,TRUE,spatial,left,incongruent,down,501,501,test,37,37,TRUE,0
46,mt,2,128,450,TRUE,spatial,right,incongruent,up,450,450,test,39,39,TRUE,0
46,mt,2,129,545,TRUE,double,right,incongruent,up,545,545,test,39,39,TRUE,0
46,mt,2,130,672,TRUE,nocue,left,neutral,up,672,672,test,37,37,TRUE,0
46,mt,2,131,650,TRUE,nocue,right,congruent,down,650,650,test,39,39,TRUE,0
46,mt,2,132,560,TRUE,double,left,incongruent,up,560,560,test,37,37,TRUE,0
46,mt,2,133,554,TRUE,nocue,left,incongruent,up,554,554,test,37,37,TRUE,0
46,mt,2,134,570,TRUE,double,left,incongruent,down,570,570,test,37,37,TRUE,0
46,mt,2,135,639,TRUE,nocue,left,incongruent,down,639,639,test,37,37,TRUE,0
46,mt,2,136,422,TRUE,spatial,left,congruent,up,422,422,test,37,37,TRUE,0
46,mt,2,137,613,TRUE,double,right,incongruent,down,613,613,test,39,39,TRUE,0
46,mt,2,138,621,TRUE,center,right,incongruent,down,621,621,test,39,39,TRUE,0
46,mt,2,139,495,TRUE,center,right,congruent,up,495,495,test,39,39,TRUE,0
46,mt,2,140,636,TRUE,nocue,right,incongruent,up,636,636,test,39,39,TRUE,0
46,mt,2,141,551,TRUE,center,left,incongruent,down,551,551,test,37,37,TRUE,0
46,mt,2,142,418,TRUE,double,right,neutral,down,418,418,test,39,39,TRUE,0
46,mt,2,143,551,TRUE,spatial,right,congruent,down,551,551,test,39,39,TRUE,0
46,mt,2,144,522,TRUE,center,left,neutral,down,522,522,test,37,37,TRUE,0
2,mt,1,1,590,TRUE,nocue,left,congruent,down,590,590,test,37,37,TRUE,0
2,mt,1,2,572,TRUE,spatial,left,neutral,up,572,572,test,37,37,TRUE,0
2,mt,1,3,547,TRUE,double,left,congruent,down,547,547,test,37,37,TRUE,0
2,mt,1,4,546,TRUE,spatial,left,congruent,up,546,546,test,37,37,TRUE,0
2,mt,1,5,534,TRUE,center,right,neutral,up,534,534,test,39,39,TRUE,0
2,mt,1,6,582,TRUE,double,left,congruent,up,582,582,test,37,37,TRUE,0
2,mt,1,7,508,TRUE,center,left,congruent,up,508,508,test,37,37,TRUE,0
2,mt,1,8,474,TRUE,spatial,right,incongruent,up,474,474,test,39,39,TRUE,0
2,mt,1,9,506,TRUE,center,right,congruent,down,506,506,test,39,39,TRUE,0
2,mt,1,10,435,TRUE,spatial,right,congruent,up,435,435,test,39,39,TRUE,0
2,mt,1,11,505,TRUE,spatial,left,incongruent,up,505,505,test,37,37,TRUE,0
2,mt,1,12,444,TRUE,center,right,congruent,up,444,444,test,39,39,TRUE,0
2,mt,1,13,548,TRUE,center,left,congruent,down,548,548,test,37,37,TRUE,0
2,mt,1,14,542,TRUE,center,left,incongruent,down,542,542,test,37,37,TRUE,0
2,mt,1,15,520,TRUE,double,right,congruent,up,520,520,test,39,39,TRUE,0
2,mt,1,16,545,TRUE,double,right,incongruent,up,545,545,test,39,39,TRUE,0
2,mt,1,17,574,TRUE,nocue,left,incongruent,up,574,574,test,37,37,TRUE,0
2,mt,1,18,524,TRUE,center,right,incongruent,up,524,524,test,39,39,TRUE,0
2,mt,1,19,633,TRUE,nocue,right,incongruent,down,633,633,test,39,39,TRUE,0
2,mt,1,20,577,TRUE,nocue,right,congruent,up,577,577,test,39,39,TRUE,0
2,mt,1,21,472,TRUE,spatial,right,incongruent,down,472,472,test,39,39,TRUE,0
2,mt,1,22,512,TRUE,spatial,left,incongruent,down,512,512,test,37,37,TRUE,0
2,mt,1,23,800,TRUE,nocue,left,congruent,up,800,800,test,37,37,TRUE,0
2,mt,1,24,502,TRUE,double,left,neutral,up,502,502,test,37,37,TRUE,0
2,mt,1,25,600,TRUE,center,left,neutral,up,600,600,test,37,37,TRUE,0
2,mt,1,26,640,TRUE,nocue,left,incongruent,down,640,640,test,37,37,TRUE,0
2,mt,1,27,545,TRUE,double,left,incongruent,up,545,545,test,37,37,TRUE,0
2,mt,1,28,423,TRUE,spatial,right,congruent,down,423,423,test,39,39,TRUE,0
2,mt,1,29,496,TRUE,center,right,neutral,down,496,496,test,39,39,TRUE,0
2,mt,1,30,575,TRUE,double,left,incongruent,down,575,575,test,37,37,TRUE,0
2,mt,1,31,610,TRUE,nocue,left,neutral,up,610,610,test,37,37,TRUE,0
2,mt,1,32,618,TRUE,nocue,right,congruent,down,618,618,test,39,39,TRUE,0
2,mt,1,33,455,TRUE,nocue,right,neutral,down,455,455,test,39,39,TRUE,0
2,mt,1,34,470,TRUE,spatial,right,neutral,down,470,470,test,39,39,TRUE,0
2,mt,1,35,654,TRUE,double,right,neutral,down,654,654,test,39,39,TRUE,0
2,mt,1,36,653,TRUE,double,left,neutral,down,653,653,test,37,37,TRUE,0
2,mt,1,37,642,TRUE,center,right,incongruent,down,642,642,test,39,39,TRUE,0
2,mt,1,38,526,TRUE,spatial,left,neutral,down,526,526,test,37,37,TRUE,0
2,mt,1,39,798,TRUE,double,right,incongruent,down,798,798,test,39,39,TRUE,0
2,mt,1,40,461,TRUE,double,right,congruent,down,461,461,test,39,39,TRUE,0
2,mt,1,41,444,TRUE,spatial,left,congruent,down,444,444,test,37,37,TRUE,0
2,mt,1,42,662,TRUE,nocue,left,neutral,down,662,662,test,37,37,TRUE,0
2,mt,1,43,574,TRUE,center,left,neutral,down,574,574,test,37,37,TRUE,0
2,mt,1,44,539,TRUE,double,right,neutral,up,539,539,test,39,39,TRUE,0
2,mt,1,45,667,TRUE,nocue,right,incongruent,up,667,667,test,39,39,TRUE,0
2,mt,1,46,590,TRUE,center,left,incongruent,up,590,590,test,37,37,TRUE,0
2,mt,1,47,569,TRUE,nocue,right,neutral,up,569,569,test,39,39,TRUE,0
2,mt,1,48,379,TRUE,spatial,right,neutral,up,379,379,test,39,39,TRUE,0
2,mt,1,49,567,TRUE,double,right,congruent,down,567,567,test,39,39,TRUE,0
2,mt,1,50,451,TRUE,spatial,right,neutral,up,451,451,test,39,39,TRUE,0
2,mt,1,51,578,TRUE,nocue,left,congruent,down,578,578,test,37,37,TRUE,0
2,mt,1,52,562,TRUE,nocue,left,neutral,down,562,562,test,37,37,TRUE,0
2,mt,1,53,588,TRUE,nocue,left,congruent,up,588,588,test,37,37,TRUE,0
2,mt,1,54,642,TRUE,nocue,left,incongruent,up,642,642,test,37,37,TRUE,0
2,mt,1,55,545,TRUE,double,left,congruent,down,545,545,test,37,37,TRUE,0
2,mt,1,56,432,TRUE,spatial,left,congruent,up,432,432,test,37,37,TRUE,0
2,mt,1,57,618,TRUE,center,left,incongruent,up,618,618,test,37,37,TRUE,0
2,mt,1,58,557,TRUE,spatial,right,incongruent,up,557,557,test,39,39,TRUE,0
2,mt,1,59,598,TRUE,double,left,incongruent,up,598,598,test,37,37,TRUE,0
2,mt,1,60,454,TRUE,spatial,right,neutral,down,454,454,test,39,39,TRUE,0
2,mt,1,61,438,TRUE,double,right,neutral,up,438,438,test,39,39,TRUE,0
2,mt,1,62,466,TRUE,nocue,right,neutral,up,466,466,test,39,39,TRUE,0
2,mt,1,63,472,TRUE,spatial,right,congruent,up,472,472,test,39,39,TRUE,0
2,mt,1,64,599,TRUE,center,left,neutral,up,599,599,test,37,37,TRUE,0
2,mt,1,65,465,TRUE,spatial,left,neutral,down,465,465,test,37,37,TRUE,0
2,mt,1,66,379,TRUE,spatial,right,congruent,down,379,379,test,39,39,TRUE,0
2,mt,1,67,486,TRUE,double,left,neutral,up,486,486,test,37,37,TRUE,0
2,mt,1,68,563,TRUE,double,right,incongruent,up,563,563,test,39,39,TRUE,0
2,mt,1,69,757,TRUE,nocue,left,incongruent,down,757,757,test,37,37,TRUE,0
2,mt,1,70,471,TRUE,spatial,left,congruent,down,471,471,test,37,37,TRUE,0
2,mt,1,71,538,TRUE,double,left,neutral,down,538,538,test,37,37,TRUE,0
2,mt,1,72,556,TRUE,center,left,congruent,up,556,556,test,37,37,TRUE,0
2,mt,1,73,537,TRUE,center,right,incongruent,down,537,537,test,39,39,TRUE,0
2,mt,1,74,582,TRUE,center,right,neutral,down,582,582,test,39,39,TRUE,0
2,mt,1,75,717,TRUE,double,left,incongruent,down,717,717,test,37,37,TRUE,0
2,mt,1,76,569,TRUE,center,left,incongruent,down,569,569,test,37,37,TRUE,0
2,mt,1,77,508,TRUE,spatial,left,incongruent,down,508,508,test,37,37,TRUE,0
2,mt,1,78,789,TRUE,center,right,neutral,up,789,789,test,39,39,TRUE,0
2,mt,1,79,567,TRUE,double,right,neutral,down,567,567,test,39,39,TRUE,0
2,mt,1,80,552,TRUE,spatial,left,neutral,up,552,552,test,37,37,TRUE,0
2,mt,1,81,519,TRUE,nocue,right,neutral,down,519,519,test,39,39,TRUE,0
2,mt,1,82,523,TRUE,center,right,incongruent,up,523,523,test,39,39,TRUE,0
2,mt,1,83,480,TRUE,center,left,congruent,down,480,480,test,37,37,TRUE,0
2,mt,1,84,558,TRUE,double,right,incongruent,down,558,558,test,39,39,TRUE,0
2,mt,1,85,558,TRUE,nocue,right,incongruent,up,558,558,test,39,39,TRUE,0
2,mt,1,86,717,TRUE,center,left,neutral,down,717,717,test,37,37,TRUE,0
2,mt,1,87,559,TRUE,nocue,right,congruent,down,559,559,test,39,39,TRUE,0
2,mt,1,88,636,TRUE,nocue,left,neutral,up,636,636,test,37,37,TRUE,0
2,mt,1,89,599,TRUE,nocue,right,congruent,up,599,599,test,39,39,TRUE,0
2,mt,1,90,519,TRUE,center,right,congruent,up,519,519,test,39,39,TRUE,0
2,mt,1,91,472,TRUE,double,right,congruent,up,472,472,test,39,39,TRUE,0
2,mt,1,92,492,TRUE,double,left,congruent,up,492,492,test,37,37,TRUE,0
2,mt,1,93,470,TRUE,center,right,congruent,down,470,470,test,39,39,TRUE,0
2,mt,1,94,429,TRUE,spatial,right,incongruent,down,429,429,test,39,39,TRUE,0
2,mt,1,95,669,TRUE,spatial,left,incongruent,up,669,669,test,37,37,TRUE,0
2,mt,1,96,591,TRUE,nocue,right,incongruent,down,591,591,test,39,39,TRUE,0
2,mt,1,97,544,TRUE,nocue,left,congruent,down,544,544,test,37,37,TRUE,0
2,mt,1,98,653,TRUE,nocue,right,incongruent,up,653,653,test,39,39,TRUE,0
2,mt,1,99,585,TRUE,double,left,neutral,up,585,585,test,37,37,TRUE,0
2,mt,1,100,457,TRUE,double,left,congruent,down,457,457,test,37,37,TRUE,0
2,mt,1,101,402,TRUE,spatial,left,congruent,down,402,402,test,37,37,TRUE,0
2,mt,1,102,563,TRUE,double,right,congruent,down,563,563,test,39,39,TRUE,0
2,mt,1,103,533,TRUE,center,left,congruent,up,533,533,test,37,37,TRUE,0
2,mt,1,104,556,TRUE,double,left,congruent,up,556,556,test,37,37,TRUE,0
2,mt,1,105,497,TRUE,spatial,left,incongruent,up,497,497,test,37,37,TRUE,0
2,mt,1,106,506,TRUE,center,left,incongruent,down,506,506,test,37,37,TRUE,0
2,mt,1,107,483,TRUE,nocue,left,neutral,down,483,483,test,37,37,TRUE,0
2,mt,1,108,555,TRUE,double,right,incongruent,up,555,555,test,39,39,TRUE,0
2,mt,1,110,394,TRUE,spatial,right,incongruent,down,394,394,test,39,39,TRUE,0
2,mt,1,111,643,TRUE,nocue,right,neutral,up,643,643,test,39,39,TRUE,0
2,mt,1,112,586,TRUE,center,right,incongruent,up,586,586,test,39,39,TRUE,0
2,mt,1,113,414,TRUE,spatial,right,neutral,down,414,414,test,39,39,TRUE,0
2,mt,1,114,370,TRUE,spatial,left,neutral,up,370,370,test,37,37,TRUE,0
2,mt,1,115,645,TRUE,nocue,right,congruent,up,645,645,test,39,39,TRUE,0
2,mt,1,116,431,TRUE,spatial,left,neutral,down,431,431,test,37,37,TRUE,0
2,mt,1,117,497,TRUE,center,left,neutral,down,497,497,test,37,37,TRUE,0
2,mt,1,118,368,TRUE,spatial,right,congruent,down,368,368,test,39,39,TRUE,0
2,mt,1,119,362,TRUE,spatial,right,congruent,up,362,362,test,39,39,TRUE,0
2,mt,1,120,476,TRUE,center,left,congruent,down,476,476,test,37,37,TRUE,0
2,mt,1,121,519,TRUE,double,right,incongruent,down,519,519,test,39,39,TRUE,0
2,mt,1,122,461,TRUE,center,right,neutral,down,461,461,test,39,39,TRUE,0
2,mt,1,123,563,TRUE,center,left,neutral,up,563,563,test,37,37,TRUE,0
2,mt,1,124,524,TRUE,double,right,congruent,up,524,524,test,39,39,TRUE,0
2,mt,1,125,434,TRUE,spatial,left,congruent,up,434,434,test,37,37,TRUE,0
2,mt,1,126,606,TRUE,center,right,incongruent,down,606,606,test,39,39,TRUE,0
2,mt,1,127,487,TRUE,double,right,neutral,up,487,487,test,39,39,TRUE,0
2,mt,1,128,443,TRUE,double,right,neutral,down,443,443,test,39,39,TRUE,0
2,mt,1,129,596,TRUE,nocue,left,congruent,up,596,596,test,37,37,TRUE,0
2,mt,1,130,558,TRUE,nocue,right,incongruent,down,558,558,test,39,39,TRUE,0
2,mt,1,131,497,TRUE,center,right,neutral,up,497,497,test,39,39,TRUE,0
2,mt,1,132,394,TRUE,spatial,right,incongruent,up,394,394,test,39,39,TRUE,0
2,mt,1,134,497,TRUE,center,right,congruent,down,497,497,test,39,39,TRUE,0
2,mt,1,135,637,TRUE,double,left,incongruent,up,637,637,test,37,37,TRUE,0
2,mt,1,136,530,TRUE,nocue,left,incongruent,down,530,530,test,37,37,TRUE,0
2,mt,1,137,609,TRUE,center,left,incongruent,up,609,609,test,37,37,TRUE,0
2,mt,1,138,773,TRUE,center,right,congruent,up,773,773,test,39,39,TRUE,0
2,mt,1,139,528,TRUE,double,left,neutral,down,528,528,test,37,37,TRUE,0
2,mt,1,140,560,TRUE,nocue,right,congruent,down,560,560,test,39,39,TRUE,0
2,mt,1,141,481,TRUE,spatial,right,neutral,up,481,481,test,39,39,TRUE,0
2,mt,1,142,602,TRUE,nocue,right,neutral,down,602,602,test,39,39,TRUE,0
2,mt,1,143,520,TRUE,spatial,left,incongruent,down,520,520,test,37,37,TRUE,0
2,mt,1,144,551,TRUE,nocue,left,neutral,up,551,551,test,37,37,TRUE,0
2,mt,2,1,432,TRUE,double,left,neutral,down,432,432,test,37,37,TRUE,0
2,mt,2,2,513,TRUE,nocue,left,incongruent,down,513,513,test,37,37,TRUE,0
2,mt,2,3,501,TRUE,center,left,incongruent,down,501,501,test,37,37,TRUE,0
2,mt,2,5,542,TRUE,double,right,neutral,down,542,542,test,39,39,TRUE,0
2,mt,2,6,495,TRUE,nocue,left,congruent,up,495,495,test,37,37,TRUE,0
2,mt,2,7,463,TRUE,double,right,congruent,down,463,463,test,39,39,TRUE,0
2,mt,2,8,527,TRUE,nocue,right,congruent,up,527,527,test,39,39,TRUE,0
2,mt,2,10,436,TRUE,spatial,right,incongruent,up,436,436,test,39,39,TRUE,0
2,mt,2,11,372,TRUE,spatial,left,congruent,down,372,372,test,37,37,TRUE,0
2,mt,2,12,551,TRUE,double,left,incongruent,down,551,551,test,37,37,TRUE,0
2,mt,2,13,505,TRUE,nocue,left,congruent,down,505,505,test,37,37,TRUE,0
2,mt,2,14,439,TRUE,center,left,neutral,down,439,439,test,37,37,TRUE,0
2,mt,2,15,548,TRUE,center,left,neutral,up,548,548,test,37,37,TRUE,0
2,mt,2,16,518,TRUE,center,right,neutral,down,518,518,test,39,39,TRUE,0
2,mt,2,17,615,TRUE,nocue,right,incongruent,up,615,615,test,39,39,TRUE,0
2,mt,2,18,427,TRUE,spatial,left,incongruent,down,427,427,test,37,37,TRUE,0
2,mt,2,20,407,TRUE,center,right,congruent,down,407,407,test,39,39,TRUE,0
2,mt,2,21,447,TRUE,double,right,congruent,up,447,447,test,39,39,TRUE,0
2,mt,2,22,437,TRUE,spatial,left,neutral,up,437,437,test,37,37,TRUE,0
2,mt,2,23,605,TRUE,nocue,right,incongruent,down,605,605,test,39,39,TRUE,0
2,mt,2,24,415,TRUE,spatial,right,neutral,down,415,415,test,39,39,TRUE,0
2,mt,2,25,650,TRUE,double,right,neutral,up,650,650,test,39,39,TRUE,0
2,mt,2,26,476,TRUE,spatial,left,incongruent,up,476,476,test,37,37,TRUE,0
2,mt,2,27,533,TRUE,center,right,congruent,up,533,533,test,39,39,TRUE,0
2,mt,2,28,603,TRUE,nocue,left,incongruent,up,603,603,test,37,37,TRUE,0
2,mt,2,29,386,TRUE,spatial,left,congruent,up,386,386,test,37,37,TRUE,0
2,mt,2,30,391,TRUE,spatial,right,congruent,up,391,391,test,39,39,TRUE,0
2,mt,2,31,623,TRUE,spatial,right,congruent,down,623,623,test,39,39,TRUE,0
2,mt,2,32,398,TRUE,spatial,right,neutral,up,398,398,test,39,39,TRUE,0
2,mt,2,33,440,TRUE,spatial,right,incongruent,down,440,440,test,39,39,TRUE,0
2,mt,2,34,462,TRUE,nocue,right,congruent,down,462,462,test,39,39,TRUE,0
2,mt,2,35,645,TRUE,nocue,left,neutral,down,645,645,test,37,37,TRUE,0
2,mt,2,36,495,TRUE,spatial,left,neutral,down,495,495,test,37,37,TRUE,0
2,mt,2,37,512,TRUE,double,left,congruent,up,512,512,test,37,37,TRUE,0
2,mt,2,38,507,TRUE,center,left,congruent,down,507,507,test,37,37,TRUE,0
2,mt,2,39,524,TRUE,nocue,left,neutral,up,524,524,test,37,37,TRUE,0
2,mt,2,40,517,TRUE,center,right,neutral,up,517,517,test,39,39,TRUE,0
2,mt,2,41,499,TRUE,center,right,incongruent,up,499,499,test,39,39,TRUE,0
2,mt,2,42,764,TRUE,double,left,incongruent,up,764,764,test,37,37,TRUE,0
2,mt,2,43,653,TRUE,center,right,incongruent,down,653,653,test,39,39,TRUE,0
2,mt,2,44,553,TRUE,double,right,incongruent,down,553,553,test,39,39,TRUE,0
2,mt,2,45,554,TRUE,double,left,congruent,down,554,554,test,37,37,TRUE,0
2,mt,2,46,584,TRUE,double,left,neutral,up,584,584,test,37,37,TRUE,0
2,mt,2,47,507,TRUE,double,right,incongruent,up,507,507,test,39,39,TRUE,0
2,mt,2,48,612,TRUE,center,left,congruent,up,612,612,test,37,37,TRUE,0
2,mt,2,49,461,TRUE,center,left,congruent,down,461,461,test,37,37,TRUE,0
2,mt,2,50,494,TRUE,double,right,neutral,down,494,494,test,39,39,TRUE,0
2,mt,2,51,478,TRUE,double,right,neutral,up,478,478,test,39,39,TRUE,0
2,mt,2,52,407,TRUE,nocue,right,congruent,up,407,407,test,39,39,TRUE,0
2,mt,2,53,711,TRUE,nocue,left,incongruent,up,711,711,test,37,37,TRUE,0
2,mt,2,54,380,TRUE,spatial,right,incongruent,up,380,380,test,39,39,TRUE,0
2,mt,2,55,366,TRUE,double,left,neutral,down,366,366,test,37,37,TRUE,0
2,mt,2,56,600,TRUE,nocue,right,incongruent,down,600,600,test,39,39,TRUE,0
2,mt,2,57,491,TRUE,center,right,congruent,up,491,491,test,39,39,TRUE,0
2,mt,2,58,400,TRUE,spatial,left,congruent,up,400,400,test,37,37,TRUE,0
2,mt,2,59,500,TRUE,center,left,neutral,down,500,500,test,37,37,TRUE,0
2,mt,2,60,424,TRUE,double,left,congruent,up,424,424,test,37,37,TRUE,0
2,mt,2,61,482,TRUE,center,right,congruent,down,482,482,test,39,39,TRUE,0
2,mt,2,62,535,TRUE,nocue,right,neutral,up,535,535,test,39,39,TRUE,0
2,mt,2,63,424,TRUE,spatial,left,neutral,down,424,424,test,37,37,TRUE,0
2,mt,2,64,439,TRUE,spatial,right,congruent,down,439,439,test,39,39,TRUE,0
2,mt,2,65,492,TRUE,spatial,left,incongruent,up,492,492,test,37,37,TRUE,0
2,mt,2,66,634,TRUE,nocue,right,neutral,down,634,634,test,39,39,TRUE,0
2,mt,2,67,486,TRUE,spatial,left,incongruent,down,486,486,test,37,37,TRUE,0
2,mt,2,68,516,TRUE,center,left,neutral,up,516,516,test,37,37,TRUE,0
2,mt,2,69,593,TRUE,nocue,left,neutral,up,593,593,test,37,37,TRUE,0
2,mt,2,70,649,TRUE,nocue,left,incongruent,down,649,649,test,37,37,TRUE,0
2,mt,2,71,538,TRUE,double,left,incongruent,up,538,538,test,37,37,TRUE,0
2,mt,2,72,550,TRUE,nocue,right,congruent,down,550,550,test,39,39,TRUE,0
2,mt,2,73,658,TRUE,nocue,right,incongruent,up,658,658,test,39,39,TRUE,0
2,mt,2,74,436,TRUE,double,right,congruent,down,436,436,test,39,39,TRUE,0
2,mt,2,75,567,TRUE,double,right,incongruent,up,567,567,test,39,39,TRUE,0
2,mt,2,76,548,TRUE,nocue,left,congruent,up,548,548,test,37,37,TRUE,0
2,mt,2,77,610,TRUE,center,left,incongruent,up,610,610,test,37,37,TRUE,0
2,mt,2,78,575,TRUE,center,left,congruent,up,575,575,test,37,37,TRUE,0
2,mt,2,79,504,TRUE,double,right,incongruent,down,504,504,test,39,39,TRUE,0
2,mt,2,80,384,TRUE,spatial,right,congruent,up,384,384,test,39,39,TRUE,0
2,mt,2,81,479,TRUE,double,left,incongruent,down,479,479,test,37,37,TRUE,0
2,mt,2,82,438,TRUE,double,left,congruent,down,438,438,test,37,37,TRUE,0
2,mt,2,83,392,TRUE,spatial,right,neutral,up,392,392,test,39,39,TRUE,0
2,mt,2,84,506,TRUE,center,right,incongruent,up,506,506,test,39,39,TRUE,0
2,mt,2,85,709,TRUE,center,left,incongruent,down,709,709,test,37,37,TRUE,0
2,mt,2,86,399,TRUE,spatial,right,neutral,down,399,399,test,39,39,TRUE,0
2,mt,2,87,697,TRUE,double,right,congruent,up,697,697,test,39,39,TRUE,0
2,mt,2,88,605,TRUE,double,left,neutral,up,605,605,test,37,37,TRUE,0
2,mt,2,89,459,TRUE,center,right,neutral,down,459,459,test,39,39,TRUE,0
2,mt,2,90,497,TRUE,nocue,left,congruent,down,497,497,test,37,37,TRUE,0
2,mt,2,91,454,TRUE,center,right,neutral,up,454,454,test,39,39,TRUE,0
2,mt,2,92,501,TRUE,nocue,left,neutral,down,501,501,test,37,37,TRUE,0
2,mt,2,93,690,TRUE,center,right,incongruent,down,690,690,test,39,39,TRUE,0
2,mt,2,94,395,TRUE,spatial,left,congruent,down,395,395,test,37,37,TRUE,0
2,mt,2,95,367,TRUE,spatial,left,neutral,up,367,367,test,37,37,TRUE,0
2,mt,2,96,422,TRUE,spatial,right,incongruent,down,422,422,test,39,39,TRUE,0
2,mt,2,97,588,TRUE,center,left,neutral,down,588,588,test,37,37,TRUE,0
2,mt,2,98,346,TRUE,spatial,left,neutral,up,346,346,test,37,37,TRUE,0
2,mt,2,99,563,TRUE,nocue,right,incongruent,down,563,563,test,39,39,TRUE,0
2,mt,2,100,427,TRUE,double,right,incongruent,up,427,427,test,39,39,TRUE,0
2,mt,2,101,465,TRUE,nocue,right,neutral,up,465,465,test,39,39,TRUE,0
2,mt,2,102,466,TRUE,double,right,congruent,down,466,466,test,39,39,TRUE,0
2,mt,2,103,431,TRUE,center,right,congruent,up,431,431,test,39,39,TRUE,0
2,mt,2,104,632,TRUE,double,right,congruent,up,632,632,test,39,39,TRUE,0
2,mt,2,105,407,TRUE,spatial,right,incongruent,down,407,407,test,39,39,TRUE,0
2,mt,2,106,508,TRUE,spatial,left,incongruent,up,508,508,test,37,37,TRUE,0
2,mt,2,107,377,TRUE,spatial,right,neutral,down,377,377,test,39,39,TRUE,0
2,mt,2,108,386,TRUE,double,right,neutral,up,386,386,test,39,39,TRUE,0
2,mt,2,109,496,TRUE,nocue,left,congruent,down,496,496,test,37,37,TRUE,0
2,mt,2,110,531,TRUE,nocue,left,incongruent,down,531,531,test,37,37,TRUE,0
2,mt,2,111,599,TRUE,double,left,incongruent,down,599,599,test,37,37,TRUE,0
2,mt,2,112,481,TRUE,nocue,left,neutral,down,481,481,test,37,37,TRUE,0
2,mt,2,113,551,TRUE,center,left,neutral,up,551,551,test,37,37,TRUE,0
2,mt,2,114,389,TRUE,spatial,left,congruent,down,389,389,test,37,37,TRUE,0
2,mt,2,115,520,TRUE,center,left,incongruent,up,520,520,test,37,37,TRUE,0
2,mt,2,116,425,TRUE,spatial,right,congruent,down,425,425,test,39,39,TRUE,0
2,mt,2,117,596,TRUE,center,right,congruent,down,596,596,test,39,39,TRUE,0
2,mt,2,118,494,TRUE,spatial,left,neutral,down,494,494,test,37,37,TRUE,0
2,mt,2,119,568,TRUE,double,left,congruent,down,568,568,test,37,37,TRUE,0
2,mt,2,120,454,TRUE,spatial,right,incongruent,up,454,454,test,39,39,TRUE,0
2,mt,2,121,398,TRUE,double,right,neutral,down,398,398,test,39,39,TRUE,0
2,mt,2,122,562,TRUE,nocue,left,neutral,up,562,562,test,37,37,TRUE,0
2,mt,2,123,568,TRUE,double,left,congruent,up,568,568,test,37,37,TRUE,0
2,mt,2,124,451,TRUE,nocue,right,neutral,down,451,451,test,39,39,TRUE,0
2,mt,2,125,578,TRUE,center,right,neutral,up,578,578,test,39,39,TRUE,0
2,mt,2,126,495,TRUE,center,right,incongruent,up,495,495,test,39,39,TRUE,0
2,mt,2,127,422,TRUE,double,left,neutral,up,422,422,test,37,37,TRUE,0
2,mt,2,128,355,TRUE,spatial,right,neutral,up,355,355,test,39,39,TRUE,0
2,mt,2,129,460,TRUE,center,right,neutral,down,460,460,test,39,39,TRUE,0
2,mt,2,130,480,TRUE,nocue,right,congruent,up,480,480,test,39,39,TRUE,0
2,mt,2,131,459,TRUE,nocue,right,congruent,down,459,459,test,39,39,TRUE,0
2,mt,2,132,411,TRUE,center,right,incongruent,down,411,411,test,39,39,TRUE,0
2,mt,2,133,477,TRUE,double,right,incongruent,down,477,477,test,39,39,TRUE,0
2,mt,2,134,667,TRUE,center,left,congruent,down,667,667,test,37,37,TRUE,0
2,mt,2,135,635,TRUE,center,left,incongruent,down,635,635,test,37,37,TRUE,0
2,mt,2,136,451,TRUE,spatial,right,congruent,up,451,451,test,39,39,TRUE,0
2,mt,2,137,420,TRUE,spatial,left,congruent,up,420,420,test,37,37,TRUE,0
2,mt,2,138,664,TRUE,double,left,incongruent,up,664,664,test,37,37,TRUE,0
2,mt,2,139,359,TRUE,spatial,left,incongruent,down,359,359,test,37,37,TRUE,0
2,mt,2,140,600,TRUE,center,left,congruent,up,600,600,test,37,37,TRUE,0
2,mt,2,141,627,TRUE,nocue,left,incongruent,up,627,627,test,37,37,TRUE,0
2,mt,2,142,520,TRUE,nocue,right,incongruent,up,520,520,test,39,39,TRUE,0
2,mt,2,143,609,TRUE,nocue,left,congruent,up,609,609,test,37,37,TRUE,0
2,mt,2,144,453,TRUE,double,left,neutral,down,453,453,test,37,37,TRUE,0
37,mt,1,2,457,TRUE,spatial,right,neutral,down,457,457,test,39,39,TRUE,0
37,mt,1,3,457,TRUE,center,left,congruent,up,457,457,test,37,37,TRUE,0
37,mt,1,4,435,TRUE,center,right,congruent,up,435,435,test,39,39,TRUE,0
37,mt,1,5,464,TRUE,spatial,right,incongruent,down,464,464,test,39,39,TRUE,0
37,mt,1,6,656,TRUE,center,left,neutral,down,656,656,test,37,37,TRUE,0
37,mt,1,7,482,TRUE,double,left,incongruent,up,482,482,test,37,37,TRUE,0
37,mt,1,8,367,TRUE,spatial,right,neutral,up,367,367,test,39,39,TRUE,0
37,mt,1,9,359,TRUE,spatial,left,neutral,up,359,359,test,37,37,TRUE,0
37,mt,1,10,471,TRUE,nocue,left,incongruent,up,471,471,test,37,37,TRUE,0
37,mt,1,11,489,TRUE,center,left,congruent,down,489,489,test,37,37,TRUE,0
37,mt,1,12,631,TRUE,double,left,neutral,down,631,631,test,37,37,TRUE,0
37,mt,1,13,438,TRUE,spatial,left,incongruent,down,438,438,test,37,37,TRUE,0
37,mt,1,14,356,TRUE,double,left,neutral,up,356,356,test,37,37,TRUE,0
37,mt,1,15,387,TRUE,center,left,incongruent,up,387,387,test,37,37,TRUE,0
37,mt,1,16,583,TRUE,double,right,congruent,down,583,583,test,39,39,TRUE,0
37,mt,1,17,388,TRUE,spatial,left,congruent,up,388,388,test,37,37,TRUE,0
37,mt,1,18,451,TRUE,nocue,right,neutral,up,451,451,test,39,39,TRUE,0
37,mt,1,19,497,TRUE,nocue,left,incongruent,down,497,497,test,37,37,TRUE,0
37,mt,1,20,574,TRUE,nocue,left,neutral,down,574,574,test,37,37,TRUE,0
37,mt,1,21,269,TRUE,spatial,right,congruent,up,269,269,test,39,39,TRUE,0
37,mt,1,22,616,TRUE,nocue,left,congruent,up,616,616,test,37,37,TRUE,0
37,mt,1,23,545,TRUE,nocue,left,neutral,up,545,545,test,37,37,TRUE,0
37,mt,1,24,429,TRUE,spatial,left,neutral,down,429,429,test,37,37,TRUE,0
37,mt,1,25,511,TRUE,spatial,right,congruent,down,511,511,test,39,39,TRUE,0
37,mt,1,26,475,TRUE,double,right,incongruent,up,475,475,test,39,39,TRUE,0
37,mt,1,27,519,TRUE,nocue,right,congruent,down,519,519,test,39,39,TRUE,0
37,mt,1,28,829,TRUE,double,right,neutral,down,829,829,test,39,39,TRUE,0
37,mt,1,29,410,TRUE,double,right,congruent,up,410,410,test,39,39,TRUE,0
37,mt,1,30,601,TRUE,nocue,left,congruent,down,601,601,test,37,37,TRUE,0
37,mt,1,31,516,TRUE,center,left,neutral,up,516,516,test,37,37,TRUE,0
37,mt,1,32,613,TRUE,nocue,right,neutral,down,613,613,test,39,39,TRUE,0
37,mt,1,33,557,TRUE,nocue,right,incongruent,down,557,557,test,39,39,TRUE,0
37,mt,1,34,591,TRUE,nocue,right,congruent,up,591,591,test,39,39,TRUE,0
37,mt,1,35,485,TRUE,center,right,incongruent,up,485,485,test,39,39,TRUE,0
37,mt,1,36,617,TRUE,double,left,congruent,up,617,617,test,37,37,TRUE,0
37,mt,1,38,587,TRUE,center,right,neutral,up,587,587,test,39,39,TRUE,0
37,mt,1,39,657,TRUE,double,left,congruent,down,657,657,test,37,37,TRUE,0
37,mt,1,40,834,TRUE,center,right,incongruent,down,834,834,test,39,39,TRUE,0
37,mt,1,41,574,TRUE,center,left,incongruent,down,574,574,test,37,37,TRUE,0
37,mt,1,42,558,TRUE,center,right,congruent,down,558,558,test,39,39,TRUE,0
37,mt,1,43,544,TRUE,spatial,left,congruent,down,544,544,test,37,37,TRUE,0
37,mt,1,44,758,TRUE,double,right,incongruent,down,758,758,test,39,39,TRUE,0
37,mt,1,45,468,TRUE,double,right,neutral,up,468,468,test,39,39,TRUE,0
37,mt,1,47,345,TRUE,spatial,right,incongruent,up,345,345,test,39,39,TRUE,0
37,mt,1,48,528,TRUE,spatial,left,incongruent,up,528,528,test,37,37,TRUE,0
37,mt,1,49,646,TRUE,double,right,neutral,down,646,646,test,39,39,TRUE,0
37,mt,1,50,585,TRUE,nocue,right,incongruent,down,585,585,test,39,39,TRUE,0
37,mt,1,51,642,TRUE,double,right,congruent,up,642,642,test,39,39,TRUE,0
37,mt,1,52,677,TRUE,center,left,congruent,up,677,677,test,37,37,TRUE,0
37,mt,1,53,398,TRUE,spatial,right,congruent,down,398,398,test,39,39,TRUE,0
37,mt,1,54,674,TRUE,spatial,left,congruent,down,674,674,test,37,37,TRUE,0
37,mt,1,55,470,TRUE,nocue,right,neutral,up,470,470,test,39,39,TRUE,0
37,mt,1,56,562,TRUE,nocue,left,neutral,down,562,562,test,37,37,TRUE,0
37,mt,1,57,685,TRUE,double,left,neutral,down,685,685,test,37,37,TRUE,0
37,mt,1,58,520,TRUE,double,left,congruent,down,520,520,test,37,37,TRUE,0
37,mt,1,59,636,TRUE,nocue,left,congruent,up,636,636,test,37,37,TRUE,0
37,mt,1,60,504,TRUE,spatial,right,neutral,up,504,504,test,39,39,TRUE,0
37,mt,1,61,467,TRUE,nocue,right,incongruent,up,467,467,test,39,39,TRUE,0
37,mt,1,62,599,TRUE,double,right,neutral,up,599,599,test,39,39,TRUE,0
37,mt,1,63,612,TRUE,nocue,right,neutral,down,612,612,test,39,39,TRUE,0
37,mt,1,64,517,TRUE,spatial,right,incongruent,down,517,517,test,39,39,TRUE,0
37,mt,1,65,447,TRUE,spatial,right,neutral,down,447,447,test,39,39,TRUE,0
37,mt,1,66,537,TRUE,double,right,incongruent,down,537,537,test,39,39,TRUE,0
37,mt,1,67,382,TRUE,spatial,right,incongruent,up,382,382,test,39,39,TRUE,0
37,mt,1,68,611,TRUE,spatial,left,neutral,up,611,611,test,37,37,TRUE,0
37,mt,1,69,597,TRUE,center,right,congruent,up,597,597,test,39,39,TRUE,0
37,mt,1,70,670,TRUE,nocue,left,congruent,down,670,670,test,37,37,TRUE,0
37,mt,1,71,649,TRUE,center,left,neutral,up,649,649,test,37,37,TRUE,0
37,mt,1,72,669,TRUE,nocue,left,incongruent,up,669,669,test,37,37,TRUE,0
37,mt,1,73,695,TRUE,nocue,right,congruent,up,695,695,test,39,39,TRUE,0
37,mt,1,74,612,TRUE,spatial,left,neutral,down,612,612,test,37,37,TRUE,0
37,mt,1,75,689,TRUE,nocue,right,congruent,down,689,689,test,39,39,TRUE,0
37,mt,1,76,856,TRUE,double,right,congruent,down,856,856,test,39,39,TRUE,0
37,mt,1,77,650,TRUE,center,right,incongruent,down,650,650,test,39,39,TRUE,0
37,mt,1,78,389,TRUE,spatial,right,congruent,up,389,389,test,39,39,TRUE,0
37,mt,1,79,498,TRUE,center,right,congruent,down,498,498,test,39,39,TRUE,0
37,mt,1,80,442,TRUE,double,right,incongruent,up,442,442,test,39,39,TRUE,0
37,mt,1,81,586,TRUE,center,right,neutral,down,586,586,test,39,39,TRUE,0
37,mt,1,82,549,TRUE,center,right,incongruent,up,549,549,test,39,39,TRUE,0
37,mt,1,83,623,TRUE,center,left,neutral,down,623,623,test,37,37,TRUE,0
37,mt,1,84,840,TRUE,double,left,incongruent,down,840,840,test,37,37,TRUE,0
37,mt,1,85,474,TRUE,center,left,congruent,down,474,474,test,37,37,TRUE,0
37,mt,1,86,712,TRUE,nocue,left,neutral,up,712,712,test,37,37,TRUE,0
37,mt,1,87,471,TRUE,double,left,neutral,up,471,471,test,37,37,TRUE,0
37,mt,1,88,357,TRUE,spatial,left,incongruent,up,357,357,test,37,37,TRUE,0
37,mt,1,89,516,TRUE,center,left,incongruent,up,516,516,test,37,37,TRUE,0
37,mt,1,90,675,TRUE,nocue,left,incongruent,down,675,675,test,37,37,TRUE,0
37,mt,1,91,530,TRUE,center,left,incongruent,down,530,530,test,37,37,TRUE,0
37,mt,1,92,534,TRUE,center,right,neutral,up,534,534,test,39,39,TRUE,0
37,mt,1,93,456,TRUE,spatial,left,incongruent,down,456,456,test,37,37,TRUE,0
37,mt,1,94,401,TRUE,spatial,left,congruent,up,401,401,test,37,37,TRUE,0
37,mt,1,95,669,TRUE,double,left,congruent,up,669,669,test,37,37,TRUE,0
37,mt,1,96,476,TRUE,double,left,incongruent,up,476,476,test,37,37,TRUE,0
37,mt,1,97,569,TRUE,nocue,left,congruent,down,569,569,test,37,37,TRUE,0
37,mt,1,98,574,TRUE,double,left,congruent,down,574,574,test,37,37,TRUE,0
37,mt,1,99,494,TRUE,center,right,neutral,up,494,494,test,39,39,TRUE,0
37,mt,1,100,646,TRUE,center,right,neutral,down,646,646,test,39,39,TRUE,0
37,mt,1,101,502,TRUE,nocue,right,neutral,up,502,502,test,39,39,TRUE,0
37,mt,1,102,490,TRUE,double,right,neutral,down,490,490,test,39,39,TRUE,0
37,mt,1,103,362,TRUE,nocue,right,congruent,up,362,362,test,39,39,TRUE,0
37,mt,1,104,306,TRUE,spatial,right,congruent,down,306,306,test,39,39,TRUE,0
37,mt,1,105,701,TRUE,double,left,neutral,down,701,701,test,37,37,TRUE,0
37,mt,1,106,438,TRUE,nocue,left,congruent,up,438,438,test,37,37,TRUE,0
37,mt,1,107,549,TRUE,nocue,left,neutral,up,549,549,test,37,37,TRUE,0
37,mt,1,108,558,TRUE,center,left,neutral,down,558,558,test,37,37,TRUE,0
37,mt,1,109,467,TRUE,double,left,incongruent,down,467,467,test,37,37,TRUE,0
37,mt,1,110,547,TRUE,nocue,left,incongruent,up,547,547,test,37,37,TRUE,0
37,mt,1,111,669,TRUE,nocue,left,incongruent,down,669,669,test,37,37,TRUE,0
37,mt,1,112,548,TRUE,center,left,congruent,up,548,548,test,37,37,TRUE,0
37,mt,1,113,630,TRUE,nocue,right,neutral,down,630,630,test,39,39,TRUE,0
37,mt,1,114,579,TRUE,double,right,congruent,down,579,579,test,39,39,TRUE,0
37,mt,1,116,558,TRUE,center,right,congruent,up,558,558,test,39,39,TRUE,0
37,mt,1,117,686,TRUE,center,right,incongruent,down,686,686,test,39,39,TRUE,0
37,mt,1,118,396,TRUE,spatial,left,congruent,up,396,396,test,37,37,TRUE,0
37,mt,1,119,467,TRUE,spatial,right,incongruent,down,467,467,test,39,39,TRUE,0
37,mt,1,120,463,TRUE,spatial,right,neutral,up,463,463,test,39,39,TRUE,0
37,mt,1,121,476,TRUE,double,left,incongruent,up,476,476,test,37,37,TRUE,0
37,mt,1,122,605,TRUE,double,right,incongruent,down,605,605,test,39,39,TRUE,0
37,mt,1,123,541,TRUE,spatial,left,congruent,down,541,541,test,37,37,TRUE,0
37,mt,1,124,651,TRUE,center,left,congruent,down,651,651,test,37,37,TRUE,0
37,mt,1,125,762,TRUE,center,right,incongruent,up,762,762,test,39,39,TRUE,0
37,mt,1,126,478,TRUE,spatial,right,congruent,up,478,478,test,39,39,TRUE,0
37,mt,1,127,647,TRUE,nocue,right,incongruent,down,647,647,test,39,39,TRUE,0
37,mt,1,128,585,TRUE,center,right,congruent,down,585,585,test,39,39,TRUE,0
37,mt,1,129,532,TRUE,nocue,right,congruent,down,532,532,test,39,39,TRUE,0
37,mt,1,130,615,TRUE,double,left,neutral,up,615,615,test,37,37,TRUE,0
37,mt,1,131,614,TRUE,center,left,incongruent,up,614,614,test,37,37,TRUE,0
37,mt,1,132,374,TRUE,spatial,left,neutral,up,374,374,test,37,37,TRUE,0
37,mt,1,133,478,TRUE,spatial,right,incongruent,up,478,478,test,39,39,TRUE,0
37,mt,1,134,609,TRUE,center,left,neutral,up,609,609,test,37,37,TRUE,0
37,mt,1,135,427,TRUE,spatial,left,neutral,down,427,427,test,37,37,TRUE,0
37,mt,1,136,356,TRUE,spatial,left,incongruent,down,356,356,test,37,37,TRUE,0
37,mt,1,137,636,TRUE,nocue,right,incongruent,up,636,636,test,39,39,TRUE,0
37,mt,1,138,660,TRUE,nocue,left,neutral,down,660,660,test,37,37,TRUE,0
37,mt,1,139,387,TRUE,double,right,congruent,up,387,387,test,39,39,TRUE,0
37,mt,1,140,413,TRUE,spatial,left,incongruent,up,413,413,test,37,37,TRUE,0
37,mt,1,141,452,TRUE,double,right,neutral,up,452,452,test,39,39,TRUE,0
37,mt,1,142,469,TRUE,spatial,right,neutral,down,469,469,test,39,39,TRUE,0
37,mt,1,143,498,TRUE,double,right,incongruent,up,498,498,test,39,39,TRUE,0
37,mt,1,144,534,TRUE,double,left,congruent,up,534,534,test,37,37,TRUE,0
37,mt,2,1,478,TRUE,spatial,left,incongruent,up,478,478,test,37,37,TRUE,0
37,mt,2,2,553,TRUE,center,right,neutral,up,553,553,test,39,39,TRUE,0
37,mt,2,3,357,TRUE,spatial,left,neutral,up,357,357,test,37,37,TRUE,0
37,mt,2,4,576,TRUE,nocue,right,congruent,down,576,576,test,39,39,TRUE,0
37,mt,2,5,493,TRUE,center,left,congruent,down,493,493,test,37,37,TRUE,0
37,mt,2,6,370,TRUE,spatial,left,congruent,up,370,370,test,37,37,TRUE,0
37,mt,2,7,443,TRUE,spatial,right,congruent,down,443,443,test,39,39,TRUE,0
37,mt,2,8,622,TRUE,center,right,neutral,down,622,622,test,39,39,TRUE,0
37,mt,2,9,407,TRUE,spatial,right,neutral,up,407,407,test,39,39,TRUE,0
37,mt,2,10,559,TRUE,center,left,neutral,down,559,559,test,37,37,TRUE,0
37,mt,2,11,451,TRUE,double,right,incongruent,up,451,451,test,39,39,TRUE,0
37,mt,2,12,547,TRUE,double,left,neutral,down,547,547,test,37,37,TRUE,0
37,mt,2,13,636,TRUE,spatial,right,incongruent,down,636,636,test,39,39,TRUE,0
37,mt,2,14,689,TRUE,nocue,right,incongruent,up,689,689,test,39,39,TRUE,0
37,mt,2,15,488,TRUE,nocue,left,neutral,down,488,488,test,37,37,TRUE,0
37,mt,2,16,477,TRUE,double,left,incongruent,up,477,477,test,37,37,TRUE,0
37,mt,2,17,559,TRUE,center,right,incongruent,down,559,559,test,39,39,TRUE,0
37,mt,2,18,576,TRUE,center,right,congruent,up,576,576,test,39,39,TRUE,0
37,mt,2,19,651,TRUE,nocue,left,congruent,up,651,651,test,37,37,TRUE,0
37,mt,2,20,539,TRUE,center,right,incongruent,up,539,539,test,39,39,TRUE,0
37,mt,2,21,625,TRUE,double,right,incongruent,down,625,625,test,39,39,TRUE,0
37,mt,2,22,502,TRUE,double,left,incongruent,down,502,502,test,37,37,TRUE,0
37,mt,2,23,502,TRUE,nocue,left,congruent,down,502,502,test,37,37,TRUE,0
37,mt,2,24,407,TRUE,double,left,congruent,up,407,407,test,37,37,TRUE,0
37,mt,2,25,439,TRUE,spatial,right,neutral,down,439,439,test,39,39,TRUE,0
37,mt,2,26,492,TRUE,center,left,neutral,up,492,492,test,37,37,TRUE,0
37,mt,2,27,589,TRUE,nocue,left,incongruent,up,589,589,test,37,37,TRUE,0
37,mt,2,28,473,TRUE,double,left,neutral,up,473,473,test,37,37,TRUE,0
37,mt,2,29,432,TRUE,spatial,left,congruent,down,432,432,test,37,37,TRUE,0
37,mt,2,30,628,TRUE,nocue,right,congruent,up,628,628,test,39,39,TRUE,0
37,mt,2,31,374,TRUE,double,right,neutral,up,374,374,test,39,39,TRUE,0
37,mt,2,32,594,TRUE,double,right,neutral,down,594,594,test,39,39,TRUE,0
37,mt,2,33,740,TRUE,center,left,incongruent,down,740,740,test,37,37,TRUE,0
37,mt,2,34,514,TRUE,center,right,congruent,down,514,514,test,39,39,TRUE,0
37,mt,2,35,505,TRUE,nocue,right,neutral,up,505,505,test,39,39,TRUE,0
37,mt,2,36,417,TRUE,double,right,congruent,up,417,417,test,39,39,TRUE,0
37,mt,2,37,478,TRUE,double,left,congruent,down,478,478,test,37,37,TRUE,0
37,mt,2,38,530,TRUE,nocue,left,neutral,up,530,530,test,37,37,TRUE,0
37,mt,2,39,420,TRUE,spatial,right,congruent,up,420,420,test,39,39,TRUE,0
37,mt,2,40,529,TRUE,nocue,right,neutral,down,529,529,test,39,39,TRUE,0
37,mt,2,42,686,TRUE,double,right,congruent,down,686,686,test,39,39,TRUE,0
37,mt,2,43,669,TRUE,spatial,left,neutral,down,669,669,test,37,37,TRUE,0
37,mt,2,44,531,TRUE,nocue,right,incongruent,down,531,531,test,39,39,TRUE,0
37,mt,2,45,635,TRUE,center,left,congruent,up,635,635,test,37,37,TRUE,0
37,mt,2,46,445,TRUE,spatial,right,incongruent,up,445,445,test,39,39,TRUE,0
37,mt,2,47,604,TRUE,center,left,incongruent,up,604,604,test,37,37,TRUE,0
37,mt,2,48,549,TRUE,nocue,left,incongruent,down,549,549,test,37,37,TRUE,0
37,mt,2,49,621,TRUE,nocue,left,congruent,down,621,621,test,37,37,TRUE,0
37,mt,2,50,396,TRUE,double,left,incongruent,up,396,396,test,37,37,TRUE,0
37,mt,2,51,522,TRUE,nocue,left,neutral,up,522,522,test,37,37,TRUE,0
37,mt,2,52,379,TRUE,spatial,right,congruent,down,379,379,test,39,39,TRUE,0
37,mt,2,53,409,TRUE,double,right,congruent,up,409,409,test,39,39,TRUE,0
37,mt,2,54,450,TRUE,spatial,right,incongruent,up,450,450,test,39,39,TRUE,0
37,mt,2,55,448,TRUE,spatial,left,congruent,down,448,448,test,37,37,TRUE,0
37,mt,2,56,397,TRUE,double,right,incongruent,up,397,397,test,39,39,TRUE,0
37,mt,2,57,413,TRUE,double,left,neutral,down,413,413,test,37,37,TRUE,0
37,mt,2,58,679,TRUE,double,right,incongruent,down,679,679,test,39,39,TRUE,0
37,mt,2,59,565,TRUE,nocue,right,neutral,down,565,565,test,39,39,TRUE,0
37,mt,2,60,684,TRUE,center,left,incongruent,down,684,684,test,37,37,TRUE,0
37,mt,2,61,488,TRUE,center,left,congruent,down,488,488,test,37,37,TRUE,0
37,mt,2,62,455,TRUE,spatial,right,neutral,down,455,455,test,39,39,TRUE,0
37,mt,2,63,508,TRUE,center,right,neutral,up,508,508,test,39,39,TRUE,0
37,mt,2,64,648,TRUE,center,right,incongruent,down,648,648,test,39,39,TRUE,0
37,mt,2,65,612,TRUE,nocue,left,incongruent,down,612,612,test,37,37,TRUE,0
37,mt,2,66,680,TRUE,nocue,left,incongruent,up,680,680,test,37,37,TRUE,0
37,mt,2,67,478,TRUE,double,left,congruent,up,478,478,test,37,37,TRUE,0
37,mt,2,68,709,TRUE,center,right,congruent,up,709,709,test,39,39,TRUE,0
37,mt,2,69,464,TRUE,spatial,left,congruent,up,464,464,test,37,37,TRUE,0
37,mt,2,70,694,TRUE,nocue,left,neutral,down,694,694,test,37,37,TRUE,0
37,mt,2,71,414,TRUE,spatial,right,incongruent,down,414,414,test,39,39,TRUE,0
37,mt,2,72,578,TRUE,double,left,congruent,down,578,578,test,37,37,TRUE,0
37,mt,2,73,557,TRUE,center,right,neutral,down,557,557,test,39,39,TRUE,0
37,mt,2,74,565,TRUE,spatial,left,incongruent,down,565,565,test,37,37,TRUE,0
37,mt,2,75,485,TRUE,double,right,neutral,up,485,485,test,39,39,TRUE,0
37,mt,2,76,435,TRUE,spatial,right,neutral,up,435,435,test,39,39,TRUE,0
37,mt,2,77,650,TRUE,spatial,left,neutral,down,650,650,test,37,37,TRUE,0
37,mt,2,78,533,TRUE,center,left,incongruent,up,533,533,test,37,37,TRUE,0
37,mt,2,79,420,TRUE,center,left,neutral,up,420,420,test,37,37,TRUE,0
37,mt,2,80,439,TRUE,center,left,neutral,down,439,439,test,37,37,TRUE,0
37,mt,2,81,657,TRUE,nocue,right,incongruent,down,657,657,test,39,39,TRUE,0
37,mt,2,82,393,TRUE,spatial,right,congruent,up,393,393,test,39,39,TRUE,0
37,mt,2,83,482,TRUE,double,left,neutral,up,482,482,test,37,37,TRUE,0
37,mt,2,84,499,TRUE,nocue,right,congruent,down,499,499,test,39,39,TRUE,0
37,mt,2,85,581,TRUE,double,left,incongruent,down,581,581,test,37,37,TRUE,0
37,mt,2,86,566,TRUE,double,right,congruent,down,566,566,test,39,39,TRUE,0
37,mt,2,87,592,TRUE,nocue,right,incongruent,up,592,592,test,39,39,TRUE,0
37,mt,2,88,537,TRUE,nocue,right,congruent,up,537,537,test,39,39,TRUE,0
37,mt,2,89,534,TRUE,center,left,congruent,up,534,534,test,37,37,TRUE,0
37,mt,2,90,579,TRUE,nocue,left,congruent,up,579,579,test,37,37,TRUE,0
37,mt,2,91,592,TRUE,center,right,incongruent,up,592,592,test,39,39,TRUE,0
37,mt,2,92,335,TRUE,spatial,left,neutral,up,335,335,test,37,37,TRUE,0
37,mt,2,93,615,TRUE,double,right,neutral,down,615,615,test,39,39,TRUE,0
37,mt,2,94,502,TRUE,center,right,congruent,down,502,502,test,39,39,TRUE,0
37,mt,2,95,556,TRUE,nocue,right,neutral,up,556,556,test,39,39,TRUE,0
37,mt,2,96,448,TRUE,spatial,left,incongruent,up,448,448,test,37,37,TRUE,0
37,mt,2,97,412,TRUE,spatial,left,neutral,up,412,412,test,37,37,TRUE,0
37,mt,2,98,519,TRUE,center,right,congruent,down,519,519,test,39,39,TRUE,0
37,mt,2,99,472,TRUE,nocue,left,congruent,down,472,472,test,37,37,TRUE,0
37,mt,2,100,503,TRUE,center,left,congruent,down,503,503,test,37,37,TRUE,0
37,mt,2,101,533,TRUE,double,right,neutral,up,533,533,test,39,39,TRUE,0
37,mt,2,102,545,TRUE,double,left,incongruent,down,545,545,test,37,37,TRUE,0
37,mt,2,103,503,TRUE,center,left,neutral,down,503,503,test,37,37,TRUE,0
37,mt,2,104,367,TRUE,spatial,left,congruent,up,367,367,test,37,37,TRUE,0
37,mt,2,105,591,TRUE,nocue,left,incongruent,down,591,591,test,37,37,TRUE,0
37,mt,2,106,523,TRUE,center,right,neutral,up,523,523,test,39,39,TRUE,0
37,mt,2,107,468,TRUE,center,left,incongruent,up,468,468,test,37,37,TRUE,0
37,mt,2,108,440,TRUE,double,right,incongruent,down,440,440,test,39,39,TRUE,0
37,mt,2,109,615,TRUE,center,left,incongruent,down,615,615,test,37,37,TRUE,0
37,mt,2,110,518,TRUE,center,right,incongruent,up,518,518,test,39,39,TRUE,0
37,mt,2,111,563,TRUE,nocue,right,congruent,down,563,563,test,39,39,TRUE,0
37,mt,2,112,488,TRUE,spatial,left,neutral,down,488,488,test,37,37,TRUE,0
