"p","t","trial_num","rt","block_duration","full_screen","focus_shifts","stim_duration","correct","correct_response","flanker_middle_direction","flanker_type","flanker_location","cue","group"
"1","1",1,645,645,TRUE,0,645,TRUE,39,"right","congruent","down","center","FAM"
"1","1",2,581,581,TRUE,0,581,TRUE,37,"left","congruent","down","nocue","FAM"
"1","1",3,693,693,TRUE,0,693,TRUE,37,"left","incongruent","down","double","FAM"
"1","1",4,741,741,TRUE,0,741,TRUE,37,"left","incongruent","up","spatial","FAM"
"1","1",5,628,628,TRUE,0,628,TRUE,39,"right","congruent","down","nocue","FAM"
"1","1",6,634,634,TRUE,0,634,TRUE,39,"right","congruent","down","spatial","FAM"
"1","1",7,861,861,TRUE,0,861,TRUE,39,"right","neutral","up","center","FAM"
"1","1",8,533,533,TRUE,0,533,TRUE,39,"right","congruent","up","double","FAM"
"1","1",9,714,714,TRUE,0,714,TRUE,39,"right","congruent","down","double","FAM"
"1","1",10,547,547,TRUE,0,547,TRUE,37,"left","congruent","up","nocue","FAM"
"1","1",11,615,615,TRUE,0,615,TRUE,37,"left","neutral","up","double","FAM"
"1","1",12,577,577,TRUE,0,577,TRUE,37,"left","congruent","down","double","FAM"
"1","1",13,475,475,TRUE,0,475,TRUE,37,"left","neutral","up","spatial","FAM"
"1","1",14,617,617,TRUE,0,617,TRUE,39,"right","congruent","up","center","FAM"
"1","1",15,430,430,TRUE,0,430,TRUE,37,"left","neutral","down","spatial","FAM"
"1","1",16,568,568,TRUE,0,568,TRUE,37,"left","neutral","down","double","FAM"
"1","1",17,603,603,TRUE,0,603,TRUE,39,"right","congruent","up","nocue","FAM"
"1","1",18,445,445,TRUE,0,445,TRUE,37,"left","incongruent","down","spatial","FAM"
"1","1",19,731,731,TRUE,0,731,TRUE,37,"left","congruent","down","spatial","FAM"
"1","1",20,694,694,TRUE,0,694,TRUE,39,"right","incongruent","up","center","FAM"
"1","1",21,563,563,TRUE,0,563,TRUE,37,"left","neutral","up","center","FAM"
"1","1",22,529,529,TRUE,0,529,TRUE,39,"right","incongruent","up","double","FAM"
"1","1",23,751,751,TRUE,0,751,TRUE,39,"right","incongruent","down","double","FAM"
"1","1",24,662,662,TRUE,0,662,TRUE,39,"right","incongruent","up","nocue","FAM"
"1","1",25,615,615,TRUE,0,615,TRUE,39,"right","incongruent","down","spatial","FAM"
"1","1",26,638,638,TRUE,0,638,TRUE,39,"right","congruent","up","spatial","FAM"
"1","1",27,814,814,TRUE,0,814,TRUE,39,"right","incongruent","up","spatial","FAM"
"1","1",28,902,902,TRUE,0,902,TRUE,37,"left","neutral","down","center","FAM"
"1","1",29,574,574,TRUE,0,574,TRUE,37,"left","congruent","up","spatial","FAM"
"1","1",30,869,869,TRUE,0,869,TRUE,37,"left","incongruent","up","nocue","FAM"
"1","1",31,617,617,TRUE,0,617,TRUE,37,"left","congruent","up","double","FAM"
"1","1",32,667,667,TRUE,0,667,TRUE,39,"right","incongruent","down","center","FAM"
"1","1",33,616,616,TRUE,0,616,TRUE,37,"left","incongruent","down","center","FAM"
"1","1",34,759,759,TRUE,0,759,TRUE,37,"left","neutral","up","nocue","FAM"
"1","1",35,731,731,TRUE,0,731,TRUE,39,"right","neutral","down","double","FAM"
"1","1",36,873,873,TRUE,0,873,TRUE,39,"right","neutral","up","double","FAM"
"1","1",37,937,937,TRUE,0,937,TRUE,37,"left","incongruent","down","nocue","FAM"
"1","1",38,718,718,TRUE,0,718,TRUE,37,"left","congruent","down","center","FAM"
"1","1",39,911,911,TRUE,0,911,TRUE,39,"right","neutral","up","nocue","FAM"
"1","1",40,910,910,TRUE,0,910,TRUE,37,"left","incongruent","up","double","FAM"
"1","1",41,822,822,TRUE,0,822,TRUE,39,"right","neutral","down","spatial","FAM"
"1","1",42,938,938,TRUE,0,938,TRUE,39,"right","neutral","down","center","FAM"
"1","1",44,660,660,TRUE,0,660,TRUE,37,"left","congruent","up","center","FAM"
"1","1",45,822,822,TRUE,0,822,TRUE,37,"left","neutral","down","nocue","FAM"
"1","1",46,749,749,TRUE,0,749,TRUE,39,"right","neutral","up","spatial","FAM"
"1","1",47,764,764,TRUE,0,764,TRUE,39,"right","neutral","down","nocue","FAM"
"1","1",48,836,836,TRUE,0,836,TRUE,39,"right","incongruent","down","nocue","FAM"
"1","1",49,607,607,TRUE,0,607,TRUE,39,"right","incongruent","up","center","FAM"
"1","1",50,935,935,TRUE,0,935,TRUE,39,"right","incongruent","down","nocue","FAM"
"1","1",51,801,801,TRUE,0,801,TRUE,37,"left","neutral","down","nocue","FAM"
"1","1",52,654,654,TRUE,0,654,TRUE,37,"left","congruent","up","nocue","FAM"
"1","1",53,845,845,TRUE,0,845,TRUE,39,"right","incongruent","up","nocue","FAM"
"1","1",54,909,909,TRUE,0,909,TRUE,37,"left","incongruent","down","double","FAM"
"1","1",55,724,724,TRUE,0,724,TRUE,39,"right","congruent","down","nocue","FAM"
"1","1",56,764,764,TRUE,0,764,TRUE,39,"right","incongruent","up","spatial","FAM"
"1","1",57,1018,1018,TRUE,0,1018,TRUE,39,"right","neutral","up","spatial","FAM"
"1","1",58,710,710,TRUE,0,710,TRUE,39,"right","neutral","down","nocue","FAM"
"1","1",59,715,715,TRUE,0,715,TRUE,39,"right","congruent","down","double","FAM"
"1","1",60,695,695,TRUE,0,695,TRUE,39,"right","incongruent","up","double","FAM"
"1","1",61,566,566,TRUE,0,566,TRUE,39,"right","incongruent","down","spatial","FAM"
"1","1",62,625,625,TRUE,0,625,TRUE,37,"left","incongruent","up","double","FAM"
"1","1",63,799,799,TRUE,0,799,TRUE,37,"left","incongruent","up","center","FAM"
"1","1",64,704,704,TRUE,0,704,TRUE,37,"left","incongruent","down","spatial","FAM"
"1","1",65,713,713,TRUE,0,713,TRUE,37,"left","neutral","down","spatial","FAM"
"1","1",66,782,782,TRUE,0,782,TRUE,37,"left","congruent","up","center","FAM"
"1","1",67,933,933,TRUE,0,933,TRUE,37,"left","neutral","up","center","FAM"
"1","1",68,735,735,TRUE,0,735,TRUE,39,"right","neutral","up","center","FAM"
"1","1",69,514,514,TRUE,0,514,TRUE,39,"right","congruent","up","spatial","FAM"
"1","1",70,660,660,TRUE,0,660,TRUE,39,"right","congruent","up","double","FAM"
"1","1",71,640,640,TRUE,0,640,TRUE,37,"left","neutral","up","nocue","FAM"
"1","1",72,767,767,TRUE,0,767,TRUE,37,"left","congruent","up","double","FAM"
"1","1",73,610,610,TRUE,0,610,TRUE,37,"left","congruent","up","spatial","FAM"
"1","1",74,695,695,TRUE,0,695,TRUE,37,"left","incongruent","up","nocue","FAM"
"1","1",75,808,808,TRUE,0,808,TRUE,39,"right","congruent","up","nocue","FAM"
"1","1",76,828,828,TRUE,0,828,TRUE,37,"left","incongruent","down","nocue","FAM"
"1","1",77,616,616,TRUE,0,616,TRUE,37,"left","congruent","down","spatial","FAM"
"1","1",78,767,767,TRUE,0,767,TRUE,39,"right","congruent","down","center","FAM"
"1","1",79,650,650,TRUE,0,650,TRUE,37,"left","neutral","down","center","FAM"
"1","1",80,610,610,TRUE,0,610,TRUE,39,"right","neutral","up","double","FAM"
"1","1",81,711,711,TRUE,0,711,TRUE,39,"right","congruent","down","spatial","FAM"
"1","1",82,628,628,TRUE,0,628,TRUE,39,"right","neutral","down","double","FAM"
"1","1",83,745,745,TRUE,0,745,TRUE,39,"right","incongruent","down","double","FAM"
"1","1",84,664,664,TRUE,0,664,TRUE,39,"right","neutral","down","spatial","FAM"
"1","1",85,671,671,TRUE,0,671,TRUE,39,"right","congruent","up","center","FAM"
"1","1",86,746,746,TRUE,0,746,TRUE,39,"right","incongruent","down","center","FAM"
"1","1",87,593,593,TRUE,0,593,TRUE,37,"left","neutral","up","spatial","FAM"
"1","1",88,755,755,TRUE,0,755,TRUE,37,"left","neutral","down","double","FAM"
"1","1",89,1077,1077,TRUE,0,1077,TRUE,37,"left","congruent","down","nocue","FAM"
"1","1",91,697,697,TRUE,0,697,TRUE,37,"left","neutral","up","double","FAM"
"1","1",92,797,797,TRUE,0,797,TRUE,37,"left","incongruent","down","center","FAM"
"1","1",93,779,779,TRUE,0,779,TRUE,37,"left","incongruent","up","spatial","FAM"
"1","1",94,747,747,TRUE,0,747,TRUE,39,"right","neutral","up","nocue","FAM"
"1","1",95,672,672,TRUE,0,672,TRUE,39,"right","neutral","down","center","FAM"
"1","1",96,1056,1056,TRUE,0,1056,TRUE,37,"left","congruent","down","double","FAM"
"1","1",97,483,483,TRUE,0,483,TRUE,37,"left","neutral","down","spatial","FAM"
"1","1",98,561,561,TRUE,0,561,TRUE,39,"right","incongruent","up","double","FAM"
"1","1",99,594,594,TRUE,0,594,TRUE,37,"left","incongruent","down","center","FAM"
"1","1",100,545,545,TRUE,0,545,TRUE,37,"left","neutral","up","spatial","FAM"
"1","1",101,847,847,TRUE,0,847,TRUE,37,"left","incongruent","down","spatial","FAM"
"1","1",102,646,646,TRUE,0,646,TRUE,37,"left","neutral","up","double","FAM"
"1","1",103,527,527,TRUE,0,527,TRUE,37,"left","neutral","down","center","FAM"
"1","1",104,578,578,TRUE,0,578,TRUE,39,"right","congruent","down","center","FAM"
"1","1",105,637,637,TRUE,0,637,TRUE,39,"right","congruent","up","center","FAM"
"1","1",106,637,637,TRUE,0,637,TRUE,39,"right","incongruent","up","nocue","FAM"
"1","1",107,603,603,TRUE,0,603,TRUE,37,"left","incongruent","down","nocue","FAM"
"1","1",108,611,611,TRUE,0,611,TRUE,39,"right","congruent","down","nocue","FAM"
"1","1",109,621,621,TRUE,0,621,TRUE,39,"right","congruent","down","double","FAM"
"1","1",110,537,537,TRUE,0,537,TRUE,39,"right","incongruent","down","nocue","FAM"
"1","1",111,509,509,TRUE,0,509,TRUE,37,"left","congruent","up","spatial","FAM"
"1","1",112,600,600,TRUE,0,600,TRUE,39,"right","incongruent","down","center","FAM"
"1","1",113,797,797,TRUE,0,797,TRUE,37,"left","neutral","up","center","FAM"
"1","1",114,629,629,TRUE,0,629,TRUE,37,"left","congruent","up","center","FAM"
"1","1",115,610,610,TRUE,0,610,TRUE,37,"left","neutral","up","nocue","FAM"
"1","1",116,649,649,TRUE,0,649,TRUE,39,"right","neutral","down","nocue","FAM"
"1","1",117,751,751,TRUE,0,751,TRUE,37,"left","congruent","up","double","FAM"
"1","1",118,826,826,TRUE,0,826,TRUE,39,"right","neutral","up","center","FAM"
"1","1",119,666,666,TRUE,0,666,TRUE,39,"right","congruent","up","nocue","FAM"
"1","1",120,983,983,TRUE,0,983,TRUE,39,"right","incongruent","down","double","FAM"
"1","1",121,644,644,TRUE,0,644,TRUE,37,"left","congruent","down","spatial","FAM"
"1","1",122,948,948,TRUE,0,948,TRUE,37,"left","incongruent","up","spatial","FAM"
"1","1",123,671,671,TRUE,0,671,TRUE,39,"right","congruent","down","spatial","FAM"
"1","1",124,853,853,TRUE,0,853,TRUE,39,"right","congruent","up","double","FAM"
"1","1",125,727,727,TRUE,0,727,TRUE,39,"right","neutral","up","spatial","FAM"
"1","1",126,530,530,TRUE,0,530,TRUE,37,"left","congruent","down","center","FAM"
"1","1",127,769,769,TRUE,0,769,TRUE,37,"left","incongruent","up","nocue","FAM"
"1","1",128,627,627,TRUE,0,627,TRUE,37,"left","neutral","down","nocue","FAM"
"1","1",129,675,675,TRUE,0,675,TRUE,37,"left","incongruent","down","double","FAM"
"1","1",130,1019,1019,TRUE,0,1019,TRUE,37,"left","incongruent","up","double","FAM"
"1","1",131,619,619,TRUE,0,619,TRUE,37,"left","congruent","down","nocue","FAM"
"1","1",132,741,741,TRUE,0,741,TRUE,39,"right","neutral","up","nocue","FAM"
"1","1",133,721,721,TRUE,0,721,TRUE,37,"left","congruent","down","double","FAM"
"1","1",134,667,667,TRUE,0,667,TRUE,37,"left","incongruent","up","center","FAM"
"1","1",135,1182,1182,TRUE,0,1182,TRUE,37,"left","congruent","up","nocue","FAM"
"1","1",136,747,747,TRUE,0,747,TRUE,39,"right","congruent","up","spatial","FAM"
"1","1",137,924,924,TRUE,0,924,TRUE,39,"right","incongruent","up","center","FAM"
"1","1",138,675,675,TRUE,0,675,TRUE,37,"left","neutral","down","double","FAM"
"1","1",139,649,649,TRUE,0,649,TRUE,39,"right","neutral","down","center","FAM"
"1","1",140,550,550,TRUE,0,550,TRUE,39,"right","neutral","down","double","FAM"
"1","1",141,605,605,TRUE,0,605,TRUE,39,"right","neutral","up","double","FAM"
"1","1",142,587,587,TRUE,0,587,TRUE,39,"right","incongruent","down","spatial","FAM"
"1","1",143,494,494,TRUE,0,494,TRUE,39,"right","incongruent","up","spatial","FAM"
"1","1",144,433,433,TRUE,0,433,TRUE,39,"right","neutral","down","spatial","FAM"
"1","2",1,598,598,TRUE,0,598,TRUE,37,"left","congruent","up","nocue","FAM"
"1","2",2,618,618,TRUE,0,618,TRUE,37,"left","incongruent","down","center","FAM"
"1","2",3,462,462,TRUE,0,462,TRUE,37,"left","neutral","up","double","FAM"
"1","2",5,559,559,TRUE,0,559,TRUE,39,"right","congruent","up","spatial","FAM"
"1","2",6,725,725,TRUE,0,725,TRUE,39,"right","incongruent","up","nocue","FAM"
"1","2",7,644,644,TRUE,0,644,TRUE,39,"right","neutral","down","spatial","FAM"
"1","2",8,659,659,TRUE,0,659,TRUE,37,"left","neutral","down","spatial","FAM"
"1","2",9,518,518,TRUE,0,518,TRUE,37,"left","incongruent","up","spatial","FAM"
"1","2",10,615,615,TRUE,0,615,TRUE,37,"left","neutral","up","spatial","FAM"
"1","2",11,700,700,TRUE,0,700,TRUE,37,"left","incongruent","down","nocue","FAM"
"1","2",12,997,997,TRUE,0,997,TRUE,37,"left","neutral","down","center","FAM"
"1","2",14,838,838,TRUE,0,838,TRUE,37,"left","congruent","up","center","FAM"
"1","2",15,719,719,TRUE,0,719,TRUE,39,"right","congruent","up","nocue","FAM"
"1","2",16,702,702,TRUE,0,702,TRUE,37,"left","incongruent","down","double","FAM"
"1","2",17,1250,1250,TRUE,0,1250,TRUE,37,"left","congruent","down","spatial","FAM"
"1","2",18,1119,1119,TRUE,0,1119,TRUE,37,"left","neutral","down","nocue","FAM"
"1","2",19,858,858,TRUE,0,858,TRUE,37,"left","neutral","down","double","FAM"
"1","2",20,753,753,TRUE,0,753,TRUE,39,"right","incongruent","down","center","FAM"
"1","2",21,690,690,TRUE,0,690,TRUE,39,"right","incongruent","up","center","FAM"
"1","2",22,868,868,TRUE,0,868,TRUE,39,"right","neutral","up","center","FAM"
"1","2",25,697,697,TRUE,0,697,TRUE,37,"left","congruent","down","double","FAM"
"1","2",26,801,801,TRUE,0,801,TRUE,39,"right","incongruent","down","double","FAM"
"1","2",27,784,784,TRUE,0,784,TRUE,37,"left","incongruent","down","spatial","FAM"
"1","2",28,584,584,TRUE,0,584,TRUE,37,"left","congruent","up","double","FAM"
"1","2",29,647,647,TRUE,0,647,TRUE,37,"left","neutral","up","center","FAM"
"1","2",30,484,484,TRUE,0,484,TRUE,39,"right","incongruent","up","spatial","FAM"
"1","2",31,769,769,TRUE,0,769,TRUE,37,"left","incongruent","up","double","FAM"
"1","2",32,891,891,TRUE,0,891,TRUE,39,"right","congruent","down","spatial","FAM"
"1","2",33,1000,1000,TRUE,0,1000,TRUE,39,"right","congruent","down","nocue","FAM"
"1","2",34,812,812,TRUE,0,812,TRUE,37,"left","congruent","down","nocue","FAM"
"1","2",37,597,597,TRUE,0,597,TRUE,39,"right","neutral","up","double","FAM"
"1","2",38,600,600,TRUE,0,600,TRUE,39,"right","incongruent","up","double","FAM"
"1","2",39,1026,1026,TRUE,0,1026,TRUE,39,"right","incongruent","down","nocue","FAM"
"1","2",40,625,625,TRUE,0,625,TRUE,39,"right","neutral","up","nocue","FAM"
"1","2",41,753,753,TRUE,0,753,TRUE,37,"left","incongruent","up","nocue","FAM"
"1","2",42,473,473,TRUE,0,473,TRUE,39,"right","neutral","up","spatial","FAM"
"1","2",43,572,572,TRUE,0,572,TRUE,37,"left","congruent","up","spatial","FAM"
"1","2",44,737,737,TRUE,0,737,TRUE,39,"right","congruent","down","double","FAM"
"1","2",45,717,717,TRUE,0,717,TRUE,37,"left","neutral","up","nocue","FAM"
"1","2",48,576,576,TRUE,0,576,TRUE,39,"right","neutral","down","nocue","FAM"
"1","2",49,750,750,TRUE,0,750,TRUE,37,"left","congruent","down","double","FAM"
"1","2",50,471,471,TRUE,0,471,TRUE,39,"right","congruent","up","double","FAM"
"1","2",51,1026,1026,TRUE,0,1026,TRUE,39,"right","neutral","up","double","FAM"
"1","2",52,636,636,TRUE,0,636,TRUE,37,"left","incongruent","up","spatial","FAM"
"1","2",53,652,652,TRUE,0,652,TRUE,37,"left","incongruent","down","nocue","FAM"
"1","2",54,626,626,TRUE,0,626,TRUE,37,"left","neutral","down","nocue","FAM"
"1","2",55,699,699,TRUE,0,699,TRUE,37,"left","incongruent","down","double","FAM"
"1","2",56,571,571,TRUE,0,571,TRUE,37,"left","congruent","down","spatial","FAM"
"1","2",57,962,962,TRUE,0,962,TRUE,39,"right","neutral","up","spatial","FAM"
"1","2",58,490,490,TRUE,0,490,TRUE,37,"left","incongruent","up","double","FAM"
"1","2",59,627,627,TRUE,0,627,TRUE,37,"left","congruent","up","nocue","FAM"
"1","2",60,782,782,TRUE,0,782,TRUE,39,"right","congruent","up","spatial","FAM"
"1","2",61,964,964,TRUE,0,964,TRUE,37,"left","incongruent","up","nocue","FAM"
"1","2",62,888,888,TRUE,0,888,TRUE,39,"right","incongruent","down","double","FAM"
"1","2",63,732,732,TRUE,0,732,TRUE,39,"right","congruent","up","nocue","FAM"
"1","2",64,568,568,TRUE,0,568,TRUE,37,"left","neutral","up","nocue","FAM"
"1","2",65,893,893,TRUE,0,893,TRUE,39,"right","neutral","down","nocue","FAM"
"1","2",66,525,525,TRUE,0,525,TRUE,39,"right","neutral","down","double","FAM"
"1","2",67,506,506,TRUE,0,506,TRUE,37,"left","neutral","up","spatial","FAM"
"1","2",68,631,631,TRUE,0,631,TRUE,39,"right","neutral","up","nocue","FAM"
"1","2",69,648,648,TRUE,0,648,TRUE,37,"left","congruent","down","nocue","FAM"
"1","2",70,506,506,TRUE,0,506,TRUE,39,"right","incongruent","up","center","FAM"
"1","2",71,583,583,TRUE,0,583,TRUE,39,"right","incongruent","up","spatial","FAM"
"1","2",72,633,633,TRUE,0,633,TRUE,39,"right","congruent","up","center","FAM"
"1","2",73,812,812,TRUE,0,812,TRUE,39,"right","incongruent","up","double","FAM"
"1","2",74,397,397,TRUE,0,397,TRUE,39,"right","neutral","down","spatial","FAM"
"1","2",75,776,776,TRUE,0,776,TRUE,37,"left","incongruent","up","center","FAM"
"1","2",76,687,687,TRUE,0,687,TRUE,39,"right","incongruent","up","nocue","FAM"
"1","2",78,613,613,TRUE,0,613,TRUE,37,"left","neutral","down","center","FAM"
"1","2",79,525,525,TRUE,0,525,TRUE,37,"left","neutral","up","double","FAM"
"1","2",80,677,677,TRUE,0,677,TRUE,39,"right","neutral","down","center","FAM"
"1","2",81,530,530,TRUE,0,530,TRUE,39,"right","incongruent","down","spatial","FAM"
"1","2",82,600,600,TRUE,0,600,TRUE,39,"right","incongruent","down","nocue","FAM"
"1","2",83,658,658,TRUE,0,658,TRUE,37,"left","congruent","up","center","FAM"
"1","2",84,671,671,TRUE,0,671,TRUE,39,"right","congruent","down","center","FAM"
"1","2",85,497,497,TRUE,0,497,TRUE,39,"right","congruent","down","nocue","FAM"
"1","2",86,631,631,TRUE,0,631,TRUE,37,"left","neutral","up","center","FAM"
"1","2",87,492,492,TRUE,0,492,TRUE,37,"left","congruent","down","center","FAM"
"1","2",88,423,423,TRUE,0,423,TRUE,37,"left","congruent","up","double","FAM"
"1","2",89,788,788,TRUE,0,788,TRUE,39,"right","incongruent","down","center","FAM"
"1","2",90,516,516,TRUE,0,516,TRUE,39,"right","congruent","down","spatial","FAM"
"1","2",91,784,784,TRUE,0,784,TRUE,39,"right","neutral","up","center","FAM"
"1","2",92,739,739,TRUE,0,739,TRUE,37,"left","neutral","down","double","FAM"
"1","2",93,554,554,TRUE,0,554,TRUE,37,"left","neutral","down","spatial","FAM"
"1","2",94,932,932,TRUE,0,932,TRUE,37,"left","incongruent","down","center","FAM"
"1","2",95,945,945,TRUE,0,945,TRUE,37,"left","incongruent","down","spatial","FAM"
"1","2",96,543,543,TRUE,0,543,TRUE,39,"right","congruent","down","double","FAM"
"1","2",97,663,663,TRUE,0,663,TRUE,39,"right","congruent","down","center","FAM"
"1","2",98,601,601,TRUE,0,601,TRUE,39,"right","neutral","down","center","FAM"
"1","2",99,762,762,TRUE,0,762,TRUE,37,"left","incongruent","down","double","FAM"
"1","2",100,467,467,TRUE,0,467,TRUE,39,"right","neutral","down","nocue","FAM"
"1","2",101,550,550,TRUE,0,550,TRUE,37,"left","neutral","down","double","FAM"
"1","2",102,716,716,TRUE,0,716,TRUE,37,"left","neutral","up","double","FAM"
"1","2",103,733,733,TRUE,0,733,TRUE,39,"right","congruent","down","double","FAM"
"1","2",104,598,598,TRUE,0,598,TRUE,37,"left","neutral","up","center","FAM"
"1","2",105,559,559,TRUE,0,559,TRUE,39,"right","neutral","up","center","FAM"
"1","2",106,619,619,TRUE,0,619,TRUE,37,"left","neutral","down","center","FAM"
"1","2",107,615,615,TRUE,0,615,TRUE,39,"right","incongruent","down","spatial","FAM"
"1","2",108,617,617,TRUE,0,617,TRUE,37,"left","congruent","down","double","FAM"
"1","2",109,647,647,TRUE,0,647,TRUE,37,"left","congruent","down","spatial","FAM"
"1","2",110,604,604,TRUE,0,604,TRUE,39,"right","congruent","down","nocue","FAM"
"1","2",111,632,632,TRUE,0,632,TRUE,39,"right","congruent","up","nocue","FAM"
"1","2",112,635,635,TRUE,0,635,TRUE,37,"left","incongruent","down","nocue","FAM"
"1","2",113,578,578,TRUE,0,578,TRUE,37,"left","incongruent","down","spatial","FAM"
"1","2",114,776,776,TRUE,0,776,TRUE,37,"left","congruent","up","nocue","FAM"
"1","2",115,646,646,TRUE,0,646,TRUE,37,"left","congruent","down","nocue","FAM"
"1","2",116,754,754,TRUE,0,754,TRUE,39,"right","incongruent","down","nocue","FAM"
"1","2",117,470,470,TRUE,0,470,TRUE,39,"right","neutral","down","double","FAM"
"1","2",118,470,470,TRUE,0,470,TRUE,37,"left","congruent","up","spatial","FAM"
"1","2",119,628,628,TRUE,0,628,TRUE,37,"left","incongruent","up","double","FAM"
"1","2",120,1003,1003,TRUE,0,1003,TRUE,37,"left","incongruent","up","nocue","FAM"
"1","2",121,633,633,TRUE,0,633,TRUE,39,"right","neutral","up","double","FAM"
"1","2",122,1309,1309,TRUE,0,1309,TRUE,39,"right","incongruent","up","center","FAM"
"1","2",124,957,957,TRUE,0,957,TRUE,37,"left","neutral","down","spatial","FAM"
"1","2",125,772,772,TRUE,0,772,TRUE,39,"right","congruent","up","center","FAM"
"1","2",127,1250,1250,TRUE,0,1250,TRUE,37,"left","incongruent","up","center","FAM"
"1","2",128,583,583,TRUE,0,583,TRUE,37,"left","congruent","up","center","FAM"
"1","2",129,911,911,TRUE,0,911,TRUE,39,"right","neutral","down","spatial","FAM"
"1","2",130,421,421,TRUE,0,421,TRUE,37,"left","congruent","up","double","FAM"
"1","2",131,586,586,TRUE,0,586,TRUE,37,"left","neutral","down","nocue","FAM"
"1","2",132,694,694,TRUE,0,694,TRUE,39,"right","incongruent","down","double","FAM"
"1","2",133,522,522,TRUE,0,522,TRUE,37,"left","neutral","up","spatial","FAM"
"1","2",134,855,855,TRUE,0,855,TRUE,37,"left","incongruent","up","spatial","FAM"
"1","2",135,680,680,TRUE,0,680,TRUE,39,"right","neutral","up","nocue","FAM"
"1","2",136,736,736,TRUE,0,736,TRUE,39,"right","incongruent","up","double","FAM"
"1","2",138,487,487,TRUE,0,487,TRUE,39,"right","congruent","up","spatial","FAM"
"1","2",139,651,651,TRUE,0,651,TRUE,39,"right","congruent","up","double","FAM"
"1","2",141,593,593,TRUE,0,593,TRUE,39,"right","congruent","down","spatial","FAM"
"1","2",142,676,676,TRUE,0,676,TRUE,37,"left","incongruent","down","center","FAM"
"1","2",143,1005,1005,TRUE,0,1005,TRUE,39,"right","incongruent","down","center","FAM"
"1","2",144,1239,1239,TRUE,0,1239,TRUE,37,"left","neutral","up","nocue","FAM"
"2","1",2,432,432,TRUE,0,432,TRUE,37,"left","congruent","up","spatial","Reading"
"2","1",3,495,495,TRUE,0,495,TRUE,39,"right","neutral","down","nocue","Reading"
"2","1",4,571,571,TRUE,0,571,TRUE,37,"left","congruent","up","double","Reading"
"2","1",5,676,676,TRUE,0,676,TRUE,39,"right","incongruent","up","nocue","Reading"
"2","1",6,716,716,TRUE,0,716,TRUE,39,"right","neutral","up","double","Reading"
"2","1",7,600,600,TRUE,0,600,TRUE,37,"left","incongruent","down","double","Reading"
"2","1",8,457,457,TRUE,0,457,TRUE,39,"right","congruent","down","center","Reading"
"2","1",9,615,615,TRUE,0,615,TRUE,39,"right","incongruent","up","spatial","Reading"
"2","1",10,390,390,TRUE,0,390,TRUE,37,"left","congruent","down","spatial","Reading"
"2","1",11,373,373,TRUE,0,373,TRUE,37,"left","neutral","up","spatial","Reading"
"2","1",12,540,540,TRUE,0,540,TRUE,37,"left","incongruent","up","double","Reading"
"2","1",14,594,594,TRUE,0,594,TRUE,39,"right","congruent","down","spatial","Reading"
"2","1",15,463,463,TRUE,0,463,TRUE,37,"left","congruent","up","center","Reading"
"2","1",16,470,470,TRUE,0,470,TRUE,37,"left","neutral","up","center","Reading"
"2","1",17,469,469,TRUE,0,469,TRUE,37,"left","congruent","up","nocue","Reading"
"2","1",18,586,586,TRUE,0,586,TRUE,37,"left","incongruent","down","center","Reading"
"2","1",19,457,457,TRUE,0,457,TRUE,39,"right","congruent","up","spatial","Reading"
"2","1",20,692,692,TRUE,0,692,TRUE,39,"right","incongruent","down","center","Reading"
"2","1",21,440,440,TRUE,0,440,TRUE,37,"left","neutral","up","double","Reading"
"2","1",22,553,553,TRUE,0,553,TRUE,39,"right","congruent","up","double","Reading"
"2","1",23,695,695,TRUE,0,695,TRUE,39,"right","congruent","down","double","Reading"
"2","1",24,568,568,TRUE,0,568,TRUE,37,"left","congruent","down","center","Reading"
"2","1",25,532,532,TRUE,0,532,TRUE,39,"right","neutral","down","spatial","Reading"
"2","1",26,706,706,TRUE,0,706,TRUE,39,"right","incongruent","up","center","Reading"
"2","1",28,679,679,TRUE,0,679,TRUE,39,"right","incongruent","down","nocue","Reading"
"2","1",29,590,590,TRUE,0,590,TRUE,39,"right","incongruent","down","spatial","Reading"
"2","1",30,697,697,TRUE,0,697,TRUE,39,"right","incongruent","up","double","Reading"
"2","1",31,574,574,TRUE,0,574,TRUE,37,"left","congruent","down","nocue","Reading"
"2","1",32,600,600,TRUE,0,600,TRUE,39,"right","neutral","down","center","Reading"
"2","1",33,384,384,TRUE,0,384,TRUE,39,"right","neutral","up","spatial","Reading"
"2","1",34,564,564,TRUE,0,564,TRUE,37,"left","incongruent","down","spatial","Reading"
"2","1",35,512,512,TRUE,0,512,TRUE,37,"left","neutral","down","center","Reading"
"2","1",36,568,568,TRUE,0,568,TRUE,39,"right","congruent","up","center","Reading"
"2","1",37,712,712,TRUE,0,712,TRUE,37,"left","neutral","up","nocue","Reading"
"2","1",38,595,595,TRUE,0,595,TRUE,39,"right","congruent","up","nocue","Reading"
"2","1",39,523,523,TRUE,0,523,TRUE,39,"right","neutral","up","nocue","Reading"
"2","1",40,602,602,TRUE,0,602,TRUE,37,"left","neutral","down","double","Reading"
"2","1",41,575,575,TRUE,0,575,TRUE,37,"left","incongruent","up","center","Reading"
"2","1",42,555,555,TRUE,0,555,TRUE,37,"left","congruent","down","double","Reading"
"2","1",43,588,588,TRUE,0,588,TRUE,39,"right","neutral","down","double","Reading"
"2","1",44,527,527,TRUE,0,527,TRUE,39,"right","incongruent","down","double","Reading"
"2","1",45,505,505,TRUE,0,505,TRUE,37,"left","neutral","down","spatial","Reading"
"2","1",46,432,432,TRUE,0,432,TRUE,37,"left","incongruent","up","spatial","Reading"
"2","1",47,454,454,TRUE,0,454,TRUE,39,"right","congruent","down","nocue","Reading"
"2","1",48,457,457,TRUE,0,457,TRUE,37,"left","neutral","down","nocue","Reading"
"2","1",49,513,513,TRUE,0,513,TRUE,37,"left","incongruent","up","nocue","Reading"
"2","1",50,526,526,TRUE,0,526,TRUE,37,"left","congruent","up","center","Reading"
"2","1",51,516,516,TRUE,0,516,TRUE,39,"right","incongruent","down","double","Reading"
"2","1",52,523,523,TRUE,0,523,TRUE,39,"right","congruent","down","center","Reading"
"2","1",53,642,642,TRUE,0,642,TRUE,39,"right","incongruent","up","double","Reading"
"2","1",54,548,548,TRUE,0,548,TRUE,37,"left","incongruent","down","nocue","Reading"
"2","1",55,532,532,TRUE,0,532,TRUE,39,"right","neutral","down","center","Reading"
"2","1",56,472,472,TRUE,0,472,TRUE,39,"right","incongruent","down","center","Reading"
"2","1",57,481,481,TRUE,0,481,TRUE,37,"left","congruent","down","center","Reading"
"2","1",58,499,499,TRUE,0,499,TRUE,37,"left","neutral","down","nocue","Reading"
"2","1",59,557,557,TRUE,0,557,TRUE,37,"left","incongruent","down","double","Reading"
"2","1",60,486,486,TRUE,0,486,TRUE,39,"right","neutral","up","center","Reading"
"2","1",61,563,563,TRUE,0,563,TRUE,39,"right","incongruent","up","nocue","Reading"
"2","1",62,549,549,TRUE,0,549,TRUE,37,"left","neutral","up","nocue","Reading"
"2","1",63,552,552,TRUE,0,552,TRUE,39,"right","incongruent","up","center","Reading"
"2","1",64,559,559,TRUE,0,559,TRUE,39,"right","neutral","down","spatial","Reading"
"2","1",65,410,410,TRUE,0,410,TRUE,39,"right","incongruent","up","spatial","Reading"
"2","1",66,484,484,TRUE,0,484,TRUE,37,"left","neutral","up","center","Reading"
"2","1",67,436,436,TRUE,0,436,TRUE,39,"right","congruent","up","center","Reading"
"2","1",68,357,357,TRUE,0,357,TRUE,37,"left","neutral","up","spatial","Reading"
"2","1",69,383,383,TRUE,0,383,TRUE,37,"left","congruent","down","spatial","Reading"
"2","1",70,435,435,TRUE,0,435,TRUE,37,"left","neutral","down","center","Reading"
"2","1",71,456,456,TRUE,0,456,TRUE,37,"left","congruent","down","nocue","Reading"
"2","1",72,405,405,TRUE,0,405,TRUE,37,"left","neutral","up","double","Reading"
"2","1",73,528,528,TRUE,0,528,TRUE,37,"left","congruent","up","double","Reading"
"2","1",75,419,419,TRUE,0,419,TRUE,37,"left","incongruent","down","spatial","Reading"
"2","1",76,454,454,TRUE,0,454,TRUE,39,"right","congruent","up","spatial","Reading"
"2","1",77,586,586,TRUE,0,586,TRUE,39,"right","neutral","down","double","Reading"
"2","1",78,420,420,TRUE,0,420,TRUE,37,"left","neutral","down","spatial","Reading"
"2","1",79,408,408,TRUE,0,408,TRUE,39,"right","congruent","down","spatial","Reading"
"2","1",80,373,373,TRUE,0,373,TRUE,37,"left","congruent","up","spatial","Reading"
"2","1",81,420,420,TRUE,0,420,TRUE,37,"left","neutral","down","double","Reading"
"2","1",82,526,526,TRUE,0,526,TRUE,39,"right","congruent","up","nocue","Reading"
"2","1",83,708,708,TRUE,0,708,TRUE,39,"right","incongruent","down","nocue","Reading"
"2","1",84,486,486,TRUE,0,486,TRUE,39,"right","congruent","down","nocue","Reading"
"2","1",85,514,514,TRUE,0,514,TRUE,39,"right","neutral","up","nocue","Reading"
"2","1",86,512,512,TRUE,0,512,TRUE,39,"right","congruent","down","double","Reading"
"2","1",87,588,588,TRUE,0,588,TRUE,39,"right","neutral","down","nocue","Reading"
"2","1",88,439,439,TRUE,0,439,TRUE,37,"left","congruent","down","double","Reading"
"2","1",90,551,551,TRUE,0,551,TRUE,39,"right","congruent","up","double","Reading"
"2","1",91,393,393,TRUE,0,393,TRUE,39,"right","neutral","up","spatial","Reading"
"2","1",92,522,522,TRUE,0,522,TRUE,37,"left","incongruent","up","double","Reading"
"2","1",93,570,570,TRUE,0,570,TRUE,37,"left","incongruent","up","center","Reading"
"2","1",94,444,444,TRUE,0,444,TRUE,37,"left","incongruent","up","spatial","Reading"
"2","1",95,458,458,TRUE,0,458,TRUE,39,"right","neutral","up","double","Reading"
"2","1",96,444,444,TRUE,0,444,TRUE,37,"left","congruent","up","nocue","Reading"
"2","1",97,498,498,TRUE,0,498,TRUE,39,"right","incongruent","up","nocue","Reading"
"2","1",98,499,499,TRUE,0,499,TRUE,39,"right","incongruent","down","spatial","Reading"
"2","1",99,566,566,TRUE,0,566,TRUE,37,"left","neutral","up","nocue","Reading"
"2","1",100,593,593,TRUE,0,593,TRUE,39,"right","congruent","down","double","Reading"
"2","1",101,472,472,TRUE,0,472,TRUE,37,"left","incongruent","down","spatial","Reading"
"2","1",102,399,399,TRUE,0,399,TRUE,39,"right","incongruent","up","double","Reading"
"2","1",103,621,621,TRUE,0,621,TRUE,39,"right","neutral","up","nocue","Reading"
"2","1",104,345,345,TRUE,0,345,TRUE,37,"left","congruent","down","spatial","Reading"
"2","1",105,559,559,TRUE,0,559,TRUE,39,"right","incongruent","up","center","Reading"
"2","1",106,404,404,TRUE,0,404,TRUE,39,"right","incongruent","up","spatial","Reading"
"2","1",107,420,420,TRUE,0,420,TRUE,39,"right","neutral","up","spatial","Reading"
"2","1",108,751,751,TRUE,0,751,TRUE,37,"left","incongruent","up","double","Reading"
"2","1",109,497,497,TRUE,0,497,TRUE,39,"right","congruent","up","center","Reading"
"2","1",110,403,403,TRUE,0,403,TRUE,39,"right","congruent","up","nocue","Reading"
"2","1",111,600,600,TRUE,0,600,TRUE,39,"right","neutral","down","nocue","Reading"
"2","1",112,526,526,TRUE,0,526,TRUE,37,"left","neutral","up","center","Reading"
"2","1",113,378,378,TRUE,0,378,TRUE,39,"right","congruent","down","spatial","Reading"
"2","1",114,402,402,TRUE,0,402,TRUE,37,"left","congruent","up","center","Reading"
"2","1",115,391,391,TRUE,0,391,TRUE,39,"right","congruent","down","center","Reading"
"2","1",116,360,360,TRUE,0,360,TRUE,39,"right","neutral","up","double","Reading"
"2","1",117,490,490,TRUE,0,490,TRUE,39,"right","neutral","down","double","Reading"
"2","1",118,358,358,TRUE,0,358,TRUE,37,"left","neutral","down","spatial","Reading"
"2","1",119,458,458,TRUE,0,458,TRUE,37,"left","congruent","down","center","Reading"
"2","1",120,626,626,TRUE,0,626,TRUE,39,"right","incongruent","down","double","Reading"
"2","1",121,448,448,TRUE,0,448,TRUE,37,"left","neutral","down","nocue","Reading"
"2","1",122,505,505,TRUE,0,505,TRUE,37,"left","congruent","down","double","Reading"
"2","1",124,558,558,TRUE,0,558,TRUE,39,"right","incongruent","down","nocue","Reading"
"2","1",126,581,581,TRUE,0,581,TRUE,37,"left","incongruent","up","nocue","Reading"
"2","1",127,584,584,TRUE,0,584,TRUE,37,"left","incongruent","down","center","Reading"
"2","1",128,553,553,TRUE,0,553,TRUE,37,"left","incongruent","down","double","Reading"
"2","1",129,430,430,TRUE,0,430,TRUE,37,"left","congruent","up","spatial","Reading"
"2","1",130,483,483,TRUE,0,483,TRUE,37,"left","congruent","down","nocue","Reading"
"2","1",131,348,348,TRUE,0,348,TRUE,37,"left","neutral","down","center","Reading"
"2","1",132,409,409,TRUE,0,409,TRUE,39,"right","neutral","down","spatial","Reading"
"2","1",133,573,573,TRUE,0,573,TRUE,37,"left","incongruent","up","center","Reading"
"2","1",134,398,398,TRUE,0,398,TRUE,39,"right","congruent","up","spatial","Reading"
"2","1",135,514,514,TRUE,0,514,TRUE,39,"right","congruent","down","nocue","Reading"
"2","1",136,462,462,TRUE,0,462,TRUE,39,"right","congruent","up","double","Reading"
"2","1",137,556,556,TRUE,0,556,TRUE,39,"right","incongruent","down","center","Reading"
"2","1",138,381,381,TRUE,0,381,TRUE,37,"left","neutral","up","spatial","Reading"
"2","1",139,524,524,TRUE,0,524,TRUE,39,"right","neutral","down","center","Reading"
"2","1",140,335,335,TRUE,0,335,TRUE,37,"left","neutral","up","double","Reading"
"2","1",141,542,542,TRUE,0,542,TRUE,37,"left","neutral","down","double","Reading"
"2","1",142,592,592,TRUE,0,592,TRUE,37,"left","congruent","up","nocue","Reading"
"2","1",143,368,368,TRUE,0,368,TRUE,37,"left","incongruent","up","spatial","Reading"
"2","1",144,574,574,TRUE,0,574,TRUE,37,"left","incongruent","down","nocue","Reading"
"2","2",1,584,584,TRUE,0,584,TRUE,37,"left","congruent","down","double","Reading"
"2","2",2,504,504,TRUE,0,504,TRUE,37,"left","incongruent","down","double","Reading"
"2","2",3,374,374,TRUE,0,374,TRUE,39,"right","neutral","down","double","Reading"
"2","2",4,487,487,TRUE,0,487,TRUE,37,"left","congruent","down","nocue","Reading"
"2","2",5,574,574,TRUE,0,574,TRUE,39,"right","incongruent","up","spatial","Reading"
"2","2",6,559,559,TRUE,0,559,TRUE,39,"right","congruent","up","center","Reading"
"2","2",7,391,391,TRUE,0,391,TRUE,37,"left","neutral","down","spatial","Reading"
"2","2",8,460,460,TRUE,0,460,TRUE,39,"right","congruent","down","double","Reading"
"2","2",9,403,403,TRUE,0,403,TRUE,39,"right","congruent","down","center","Reading"
"2","2",11,448,448,TRUE,0,448,TRUE,37,"left","congruent","up","spatial","Reading"
"2","2",12,461,461,TRUE,0,461,TRUE,37,"left","congruent","up","nocue","Reading"
"2","2",13,497,497,TRUE,0,497,TRUE,37,"left","congruent","up","center","Reading"
"2","2",14,394,394,TRUE,0,394,TRUE,37,"left","incongruent","down","spatial","Reading"
"2","2",15,419,419,TRUE,0,419,TRUE,37,"left","neutral","down","center","Reading"
"2","2",16,466,466,TRUE,0,466,TRUE,37,"left","incongruent","down","nocue","Reading"
"2","2",17,403,403,TRUE,0,403,TRUE,37,"left","neutral","down","double","Reading"
"2","2",18,437,437,TRUE,0,437,TRUE,37,"left","congruent","down","spatial","Reading"
"2","2",19,464,464,TRUE,0,464,TRUE,37,"left","incongruent","up","nocue","Reading"
"2","2",20,629,629,TRUE,0,629,TRUE,37,"left","neutral","up","double","Reading"
"2","2",21,602,602,TRUE,0,602,TRUE,39,"right","neutral","up","double","Reading"
"2","2",22,420,420,TRUE,0,420,TRUE,39,"right","incongruent","up","double","Reading"
"2","2",23,663,663,TRUE,0,663,TRUE,39,"right","incongruent","down","double","Reading"
"2","2",24,602,602,TRUE,0,602,TRUE,37,"left","congruent","down","center","Reading"
"2","2",25,695,695,TRUE,0,695,TRUE,39,"right","incongruent","down","center","Reading"
"2","2",26,450,450,TRUE,0,450,TRUE,37,"left","congruent","up","double","Reading"
"2","2",27,409,409,TRUE,0,409,TRUE,39,"right","incongruent","down","spatial","Reading"
"2","2",28,551,551,TRUE,0,551,TRUE,39,"right","neutral","up","nocue","Reading"
"2","2",29,699,699,TRUE,0,699,TRUE,37,"left","incongruent","up","center","Reading"
"2","2",30,365,365,TRUE,0,365,TRUE,39,"right","congruent","down","spatial","Reading"
"2","2",31,540,540,TRUE,0,540,TRUE,39,"right","congruent","down","nocue","Reading"
"2","2",32,529,529,TRUE,0,529,TRUE,37,"left","incongruent","down","center","Reading"
"2","2",33,525,525,TRUE,0,525,TRUE,39,"right","incongruent","down","nocue","Reading"
"2","2",34,447,447,TRUE,0,447,TRUE,37,"left","neutral","up","nocue","Reading"
"2","2",35,391,391,TRUE,0,391,TRUE,37,"left","neutral","up","spatial","Reading"
"2","2",36,511,511,TRUE,0,511,TRUE,37,"left","neutral","down","nocue","Reading"
"2","2",37,533,533,TRUE,0,533,TRUE,39,"right","congruent","up","nocue","Reading"
"2","2",38,564,564,TRUE,0,564,TRUE,39,"right","neutral","down","center","Reading"
"2","2",39,563,563,TRUE,0,563,TRUE,39,"right","neutral","down","nocue","Reading"
"2","2",40,466,466,TRUE,0,466,TRUE,37,"left","neutral","up","center","Reading"
"2","2",41,503,503,TRUE,0,503,TRUE,39,"right","neutral","up","center","Reading"
"2","2",42,630,630,TRUE,0,630,TRUE,39,"right","incongruent","up","nocue","Reading"
"2","2",43,439,439,TRUE,0,439,TRUE,39,"right","incongruent","up","center","Reading"
"2","2",44,398,398,TRUE,0,398,TRUE,37,"left","incongruent","up","spatial","Reading"
"2","2",45,527,527,TRUE,0,527,TRUE,39,"right","congruent","up","spatial","Reading"
"2","2",46,572,572,TRUE,0,572,TRUE,39,"right","congruent","up","double","Reading"
"2","2",47,403,403,TRUE,0,403,TRUE,37,"left","incongruent","up","double","Reading"
"2","2",48,535,535,TRUE,0,535,TRUE,39,"right","neutral","down","spatial","Reading"
"2","2",49,595,595,TRUE,0,595,TRUE,37,"left","congruent","down","center","Reading"
"2","2",50,377,377,TRUE,0,377,TRUE,39,"right","congruent","down","center","Reading"
"2","2",51,567,567,TRUE,0,567,TRUE,39,"right","neutral","up","center","Reading"
"2","2",52,387,387,TRUE,0,387,TRUE,37,"left","congruent","up","spatial","Reading"
"2","2",53,539,539,TRUE,0,539,TRUE,37,"left","neutral","down","center","Reading"
"2","2",54,491,491,TRUE,0,491,TRUE,37,"left","neutral","up","double","Reading"
"2","2",55,498,498,TRUE,0,498,TRUE,39,"right","neutral","down","spatial","Reading"
"2","2",57,415,415,TRUE,0,415,TRUE,39,"right","congruent","down","spatial","Reading"
"2","2",58,588,588,TRUE,0,588,TRUE,39,"right","incongruent","up","nocue","Reading"
"2","2",59,599,599,TRUE,0,599,TRUE,39,"right","neutral","down","nocue","Reading"
"2","2",60,565,565,TRUE,0,565,TRUE,37,"left","congruent","up","nocue","Reading"
"2","2",61,477,477,TRUE,0,477,TRUE,37,"left","incongruent","up","double","Reading"
"2","2",62,418,418,TRUE,0,418,TRUE,37,"left","incongruent","up","spatial","Reading"
"2","2",63,481,481,TRUE,0,481,TRUE,37,"left","congruent","down","nocue","Reading"
"2","2",64,429,429,TRUE,0,429,TRUE,39,"right","neutral","up","double","Reading"
"2","2",65,550,550,TRUE,0,550,TRUE,37,"left","incongruent","down","center","Reading"
"2","2",66,569,569,TRUE,0,569,TRUE,39,"right","congruent","up","nocue","Reading"
"2","2",67,627,627,TRUE,0,627,TRUE,39,"right","congruent","up","spatial","Reading"
"2","2",68,372,372,TRUE,0,372,TRUE,37,"left","neutral","down","spatial","Reading"
"2","2",69,559,559,TRUE,0,559,TRUE,39,"right","congruent","up","center","Reading"
"2","2",70,376,376,TRUE,0,376,TRUE,37,"left","congruent","up","double","Reading"
"2","2",71,516,516,TRUE,0,516,TRUE,37,"left","congruent","up","center","Reading"
"2","2",72,586,586,TRUE,0,586,TRUE,39,"right","neutral","down","center","Reading"
"2","2",73,632,632,TRUE,0,632,TRUE,39,"right","incongruent","down","center","Reading"
"2","2",74,390,390,TRUE,0,390,TRUE,37,"left","congruent","down","spatial","Reading"
"2","2",75,383,383,TRUE,0,383,TRUE,37,"left","incongruent","down","spatial","Reading"
"2","2",76,542,542,TRUE,0,542,TRUE,37,"left","neutral","up","nocue","Reading"
"2","2",77,403,403,TRUE,0,403,TRUE,39,"right","incongruent","up","double","Reading"
"2","2",78,370,370,TRUE,0,370,TRUE,39,"right","congruent","up","double","Reading"
"2","2",79,515,515,TRUE,0,515,TRUE,39,"right","congruent","down","nocue","Reading"
"2","2",80,518,518,TRUE,0,518,TRUE,37,"left","neutral","down","double","Reading"
"2","2",81,349,349,TRUE,0,349,TRUE,39,"right","neutral","up","spatial","Reading"
"2","2",82,366,366,TRUE,0,366,TRUE,39,"right","neutral","up","nocue","Reading"
"2","2",83,479,479,TRUE,0,479,TRUE,39,"right","congruent","down","double","Reading"
"2","2",85,396,396,TRUE,0,396,TRUE,37,"left","neutral","up","spatial","Reading"
"2","2",86,579,579,TRUE,0,579,TRUE,39,"right","incongruent","down","double","Reading"
"2","2",87,394,394,TRUE,0,394,TRUE,39,"right","incongruent","up","spatial","Reading"
"2","2",88,615,615,TRUE,0,615,TRUE,39,"right","incongruent","down","nocue","Reading"
"2","2",89,546,546,TRUE,0,546,TRUE,37,"left","incongruent","up","nocue","Reading"
"2","2",90,541,541,TRUE,0,541,TRUE,37,"left","congruent","down","double","Reading"
"2","2",91,442,442,TRUE,0,442,TRUE,37,"left","neutral","down","nocue","Reading"
"2","2",92,576,576,TRUE,0,576,TRUE,37,"left","incongruent","down","double","Reading"
"2","2",93,442,442,TRUE,0,442,TRUE,39,"right","neutral","down","double","Reading"
"2","2",94,511,511,TRUE,0,511,TRUE,39,"right","incongruent","up","center","Reading"
"2","2",95,568,568,TRUE,0,568,TRUE,37,"left","incongruent","up","center","Reading"
"2","2",96,397,397,TRUE,0,397,TRUE,37,"left","neutral","up","center","Reading"
"2","2",97,385,385,TRUE,0,385,TRUE,37,"left","congruent","up","double","Reading"
"2","2",98,380,380,TRUE,0,380,TRUE,37,"left","incongruent","up","spatial","Reading"
"2","2",99,595,595,TRUE,0,595,TRUE,39,"right","congruent","down","double","Reading"
"2","2",100,559,559,TRUE,0,559,TRUE,37,"left","congruent","up","center","Reading"
"2","2",101,555,555,TRUE,0,555,TRUE,39,"right","neutral","down","nocue","Reading"
"2","2",102,599,599,TRUE,0,599,TRUE,37,"left","incongruent","down","center","Reading"
"2","2",103,573,573,TRUE,0,573,TRUE,37,"left","incongruent","up","center","Reading"
"2","2",104,455,455,TRUE,0,455,TRUE,39,"right","neutral","up","double","Reading"
"2","2",105,357,357,TRUE,0,357,TRUE,37,"left","neutral","down","spatial","Reading"
"2","2",106,506,506,TRUE,0,506,TRUE,39,"right","congruent","down","center","Reading"
"2","2",107,615,615,TRUE,0,615,TRUE,39,"right","neutral","up","nocue","Reading"
"2","2",108,617,617,TRUE,0,617,TRUE,37,"left","neutral","up","nocue","Reading"
"2","2",109,475,475,TRUE,0,475,TRUE,39,"right","congruent","up","double","Reading"
"2","2",110,602,602,TRUE,0,602,TRUE,37,"left","incongruent","up","nocue","Reading"
"2","2",111,520,520,TRUE,0,520,TRUE,39,"right","neutral","down","center","Reading"
"2","2",112,499,499,TRUE,0,499,TRUE,39,"right","neutral","up","center","Reading"
"2","2",113,340,340,TRUE,0,340,TRUE,39,"right","congruent","up","spatial","Reading"
"2","2",114,581,581,TRUE,0,581,TRUE,39,"right","incongruent","down","double","Reading"
"2","2",115,618,618,TRUE,0,618,TRUE,37,"left","congruent","down","center","Reading"
"2","2",116,476,476,TRUE,0,476,TRUE,39,"right","congruent","up","center","Reading"
"2","2",117,329,329,TRUE,0,329,TRUE,37,"left","incongruent","down","spatial","Reading"
"2","2",118,422,422,TRUE,0,422,TRUE,39,"right","neutral","down","double","Reading"
"2","2",119,437,437,TRUE,0,437,TRUE,37,"left","congruent","down","nocue","Reading"
"2","2",120,347,347,TRUE,0,347,TRUE,39,"right","congruent","down","spatial","Reading"
"2","2",121,352,352,TRUE,0,352,TRUE,37,"left","congruent","down","spatial","Reading"
"2","2",122,323,323,TRUE,0,323,TRUE,39,"right","neutral","up","spatial","Reading"
"2","2",123,579,579,TRUE,0,579,TRUE,37,"left","congruent","up","spatial","Reading"
"2","2",124,326,326,TRUE,0,326,TRUE,39,"right","incongruent","up","spatial","Reading"
"2","2",125,493,493,TRUE,0,493,TRUE,37,"left","congruent","up","nocue","Reading"
"2","2",126,397,397,TRUE,0,397,TRUE,37,"left","incongruent","up","double","Reading"
"2","2",127,528,528,TRUE,0,528,TRUE,39,"right","congruent","up","nocue","Reading"
"2","2",128,564,564,TRUE,0,564,TRUE,37,"left","congruent","down","double","Reading"
"2","2",129,610,610,TRUE,0,610,TRUE,37,"left","incongruent","down","nocue","Reading"
"2","2",130,522,522,TRUE,0,522,TRUE,37,"left","incongruent","down","double","Reading"
"2","2",131,432,432,TRUE,0,432,TRUE,37,"left","neutral","down","nocue","Reading"
"2","2",132,578,578,TRUE,0,578,TRUE,39,"right","incongruent","down","center","Reading"
"2","2",133,427,427,TRUE,0,427,TRUE,37,"left","neutral","down","center","Reading"
"2","2",134,473,473,TRUE,0,473,TRUE,37,"left","neutral","up","center","Reading"
"2","2",135,592,592,TRUE,0,592,TRUE,39,"right","incongruent","up","nocue","Reading"
"2","2",136,540,540,TRUE,0,540,TRUE,37,"left","neutral","down","double","Reading"
"2","2",137,414,414,TRUE,0,414,TRUE,37,"left","neutral","up","spatial","Reading"
"2","2",138,683,683,TRUE,0,683,TRUE,39,"right","incongruent","up","center","Reading"
"2","2",139,551,551,TRUE,0,551,TRUE,37,"left","neutral","up","double","Reading"
"2","2",140,457,457,TRUE,0,457,TRUE,39,"right","incongruent","up","double","Reading"
"2","2",141,652,652,TRUE,0,652,TRUE,39,"right","neutral","down","spatial","Reading"
"2","2",142,536,536,TRUE,0,536,TRUE,39,"right","congruent","down","nocue","Reading"
"2","2",143,371,371,TRUE,0,371,TRUE,39,"right","incongruent","down","spatial","Reading"
"2","2",144,571,571,TRUE,0,571,TRUE,39,"right","incongruent","down","nocue","Reading"
"6","1",1,643,643,TRUE,0,643,TRUE,39,"right","incongruent","down","spatial","Reading"
"6","1",2,581,581,TRUE,0,581,TRUE,37,"left","congruent","up","nocue","Reading"
"6","1",3,584,584,TRUE,0,584,TRUE,37,"left","incongruent","up","nocue","Reading"
"6","1",4,559,559,TRUE,0,559,TRUE,37,"left","incongruent","down","center","Reading"
"6","1",5,473,473,TRUE,0,473,TRUE,37,"left","neutral","down","center","Reading"
"6","1",6,571,571,TRUE,0,571,TRUE,39,"right","congruent","down","center","Reading"
"6","1",7,435,435,TRUE,0,435,TRUE,39,"right","congruent","down","spatial","Reading"
"6","1",8,563,563,TRUE,0,563,TRUE,37,"left","congruent","down","nocue","Reading"
"6","1",9,588,588,TRUE,0,588,TRUE,39,"right","neutral","down","double","Reading"
"6","1",10,514,514,TRUE,0,514,TRUE,39,"right","neutral","up","spatial","Reading"
"6","1",11,534,534,TRUE,0,534,TRUE,37,"left","congruent","up","double","Reading"
"6","1",12,590,590,TRUE,0,590,TRUE,37,"left","neutral","down","double","Reading"
"6","1",13,691,691,TRUE,0,691,TRUE,39,"right","incongruent","down","nocue","Reading"
"6","1",14,503,503,TRUE,0,503,TRUE,37,"left","neutral","up","spatial","Reading"
"6","1",15,629,629,TRUE,0,629,TRUE,39,"right","incongruent","up","nocue","Reading"
"6","1",16,630,630,TRUE,0,630,TRUE,39,"right","neutral","down","nocue","Reading"
"6","1",17,394,394,TRUE,0,394,TRUE,37,"left","congruent","down","spatial","Reading"
"6","1",18,680,680,TRUE,0,680,TRUE,39,"right","congruent","down","nocue","Reading"
"6","1",19,574,574,TRUE,0,574,TRUE,39,"right","neutral","down","spatial","Reading"
"6","1",20,659,659,TRUE,0,659,TRUE,37,"left","incongruent","down","double","Reading"
"6","1",21,606,606,TRUE,0,606,TRUE,37,"left","neutral","down","nocue","Reading"
"6","1",22,510,510,TRUE,0,510,TRUE,39,"right","incongruent","up","double","Reading"
"6","1",23,543,543,TRUE,0,543,TRUE,37,"left","congruent","up","center","Reading"
"6","1",24,638,638,TRUE,0,638,TRUE,39,"right","congruent","up","double","Reading"
"6","1",25,651,651,TRUE,0,651,TRUE,39,"right","incongruent","down","double","Reading"
"6","1",26,592,592,TRUE,0,592,TRUE,37,"left","neutral","up","double","Reading"
"6","1",27,474,474,TRUE,0,474,TRUE,37,"left","neutral","down","spatial","Reading"
"6","1",28,511,511,TRUE,0,511,TRUE,39,"right","incongruent","up","center","Reading"
"6","1",30,452,452,TRUE,0,452,TRUE,37,"left","incongruent","up","spatial","Reading"
"6","1",31,498,498,TRUE,0,498,TRUE,37,"left","incongruent","down","spatial","Reading"
"6","1",32,475,475,TRUE,0,475,TRUE,39,"right","congruent","up","spatial","Reading"
"6","1",33,625,625,TRUE,0,625,TRUE,39,"right","neutral","up","nocue","Reading"
"6","1",34,576,576,TRUE,0,576,TRUE,37,"left","congruent","down","center","Reading"
"6","1",35,679,679,TRUE,0,679,TRUE,37,"left","incongruent","down","nocue","Reading"
"6","1",36,556,556,TRUE,0,556,TRUE,37,"left","incongruent","up","double","Reading"
"6","1",37,597,597,TRUE,0,597,TRUE,37,"left","neutral","up","nocue","Reading"
"6","1",38,721,721,TRUE,0,721,TRUE,39,"right","incongruent","down","center","Reading"
"6","1",39,620,620,TRUE,0,620,TRUE,39,"right","congruent","up","center","Reading"
"6","1",40,445,445,TRUE,0,445,TRUE,37,"left","congruent","up","spatial","Reading"
"6","1",41,624,624,TRUE,0,624,TRUE,39,"right","neutral","down","center","Reading"
"6","1",42,558,558,TRUE,0,558,TRUE,39,"right","neutral","up","double","Reading"
"6","1",43,614,614,TRUE,0,614,TRUE,39,"right","congruent","up","nocue","Reading"
"6","1",44,543,543,TRUE,0,543,TRUE,39,"right","congruent","down","double","Reading"
"6","1",45,654,654,TRUE,0,654,TRUE,39,"right","neutral","up","center","Reading"
"6","1",46,651,651,TRUE,0,651,TRUE,37,"left","neutral","up","center","Reading"
"6","1",47,635,635,TRUE,0,635,TRUE,37,"left","congruent","down","double","Reading"
"6","1",49,578,578,TRUE,0,578,TRUE,39,"right","congruent","up","center","Reading"
"6","1",50,675,675,TRUE,0,675,TRUE,39,"right","neutral","down","nocue","Reading"
"6","1",51,607,607,TRUE,0,607,TRUE,37,"left","incongruent","up","double","Reading"
"6","1",52,472,472,TRUE,0,472,TRUE,37,"left","neutral","up","double","Reading"
"6","1",53,487,487,TRUE,0,487,TRUE,37,"left","neutral","up","center","Reading"
"6","1",54,388,388,TRUE,0,388,TRUE,37,"left","neutral","up","spatial","Reading"
"6","1",55,389,389,TRUE,0,389,TRUE,37,"left","incongruent","up","spatial","Reading"
"6","1",56,469,469,TRUE,0,469,TRUE,39,"right","congruent","up","double","Reading"
"6","1",57,573,573,TRUE,0,573,TRUE,37,"left","incongruent","down","spatial","Reading"
"6","1",58,523,523,TRUE,0,523,TRUE,39,"right","neutral","down","double","Reading"
"6","1",59,573,573,TRUE,0,573,TRUE,39,"right","incongruent","down","center","Reading"
"6","1",60,474,474,TRUE,0,474,TRUE,37,"left","incongruent","down","nocue","Reading"
"6","1",61,550,550,TRUE,0,550,TRUE,37,"left","congruent","up","spatial","Reading"
"6","1",62,634,634,TRUE,0,634,TRUE,39,"right","incongruent","up","double","Reading"
"6","1",63,543,543,TRUE,0,543,TRUE,39,"right","congruent","up","spatial","Reading"
"6","1",64,618,618,TRUE,0,618,TRUE,39,"right","incongruent","down","spatial","Reading"
"6","1",65,659,659,TRUE,0,659,TRUE,37,"left","congruent","down","nocue","Reading"
"6","1",66,554,554,TRUE,0,554,TRUE,39,"right","neutral","down","center","Reading"
"6","1",67,734,734,TRUE,0,734,TRUE,39,"right","incongruent","down","double","Reading"
"6","1",68,655,655,TRUE,0,655,TRUE,39,"right","neutral","up","center","Reading"
"6","1",69,523,523,TRUE,0,523,TRUE,37,"left","incongruent","up","nocue","Reading"
"6","1",70,690,690,TRUE,0,690,TRUE,39,"right","neutral","up","nocue","Reading"
"6","1",71,571,571,TRUE,0,571,TRUE,39,"right","neutral","up","spatial","Reading"
"6","1",72,408,408,TRUE,0,408,TRUE,39,"right","neutral","up","double","Reading"
"6","1",73,445,445,TRUE,0,445,TRUE,37,"left","neutral","down","spatial","Reading"
"6","1",74,569,569,TRUE,0,569,TRUE,39,"right","incongruent","down","nocue","Reading"
"6","1",75,792,792,TRUE,0,792,TRUE,37,"left","incongruent","down","center","Reading"
"6","1",76,562,562,TRUE,0,562,TRUE,37,"left","neutral","down","double","Reading"
"6","1",77,656,656,TRUE,0,656,TRUE,37,"left","neutral","down","nocue","Reading"
"6","1",78,788,788,TRUE,0,788,TRUE,39,"right","congruent","up","nocue","Reading"
"6","1",79,675,675,TRUE,0,675,TRUE,39,"right","congruent","down","center","Reading"
"6","1",80,756,756,TRUE,0,756,TRUE,39,"right","incongruent","up","center","Reading"
"6","1",81,573,573,TRUE,0,573,TRUE,37,"left","congruent","up","double","Reading"
"6","1",82,592,592,TRUE,0,592,TRUE,37,"left","congruent","up","nocue","Reading"
"6","1",83,547,547,TRUE,0,547,TRUE,37,"left","congruent","down","center","Reading"
"6","1",84,471,471,TRUE,0,471,TRUE,37,"left","incongruent","down","double","Reading"
"6","1",85,479,479,TRUE,0,479,TRUE,37,"left","neutral","down","center","Reading"
"6","1",86,631,631,TRUE,0,631,TRUE,37,"left","incongruent","up","center","Reading"
"6","1",88,734,734,TRUE,0,734,TRUE,39,"right","incongruent","up","nocue","Reading"
"6","1",89,459,459,TRUE,0,459,TRUE,37,"left","congruent","down","spatial","Reading"
"6","1",90,420,420,TRUE,0,420,TRUE,39,"right","incongruent","up","spatial","Reading"
"6","1",91,612,612,TRUE,0,612,TRUE,37,"left","neutral","up","nocue","Reading"
"6","1",92,422,422,TRUE,0,422,TRUE,39,"right","congruent","down","spatial","Reading"
"6","1",93,398,398,TRUE,0,398,TRUE,39,"right","neutral","down","spatial","Reading"
"6","1",94,529,529,TRUE,0,529,TRUE,37,"left","congruent","down","double","Reading"
"6","1",95,533,533,TRUE,0,533,TRUE,37,"left","congruent","up","center","Reading"
"6","1",96,547,547,TRUE,0,547,TRUE,39,"right","congruent","down","nocue","Reading"
"6","1",97,604,604,TRUE,0,604,TRUE,37,"left","neutral","down","center","Reading"
"6","1",98,547,547,TRUE,0,547,TRUE,37,"left","congruent","up","nocue","Reading"
"6","1",99,417,417,TRUE,0,417,TRUE,37,"left","congruent","up","center","Reading"
"6","1",100,526,526,TRUE,0,526,TRUE,39,"right","incongruent","up","nocue","Reading"
"6","1",102,568,568,TRUE,0,568,TRUE,39,"right","incongruent","down","spatial","Reading"
"6","1",103,396,396,TRUE,0,396,TRUE,39,"right","neutral","up","spatial","Reading"
"6","1",104,393,393,TRUE,0,393,TRUE,39,"right","neutral","up","center","Reading"
"6","1",105,485,485,TRUE,0,485,TRUE,39,"right","incongruent","up","center","Reading"
"6","1",106,590,590,TRUE,0,590,TRUE,37,"left","congruent","down","center","Reading"
"6","1",107,587,587,TRUE,0,587,TRUE,37,"left","incongruent","up","center","Reading"
"6","1",108,455,455,TRUE,0,455,TRUE,37,"left","incongruent","up","nocue","Reading"
"6","1",109,619,619,TRUE,0,619,TRUE,37,"left","incongruent","down","double","Reading"
"6","1",110,700,700,TRUE,0,700,TRUE,37,"left","incongruent","down","spatial","Reading"
"6","1",111,437,437,TRUE,0,437,TRUE,37,"left","incongruent","up","spatial","Reading"
"6","1",112,563,563,TRUE,0,563,TRUE,37,"left","neutral","up","nocue","Reading"
"6","1",113,551,551,TRUE,0,551,TRUE,37,"left","neutral","up","center","Reading"
"6","1",114,494,494,TRUE,0,494,TRUE,39,"right","incongruent","up","double","Reading"
"6","1",115,416,416,TRUE,0,416,TRUE,37,"left","congruent","up","spatial","Reading"
"6","1",116,579,579,TRUE,0,579,TRUE,37,"left","neutral","down","double","Reading"
"6","1",117,547,547,TRUE,0,547,TRUE,37,"left","neutral","down","spatial","Reading"
"6","1",118,412,412,TRUE,0,412,TRUE,37,"left","congruent","down","nocue","Reading"
"6","1",119,515,515,TRUE,0,515,TRUE,39,"right","congruent","down","nocue","Reading"
"6","1",120,466,466,TRUE,0,466,TRUE,39,"right","congruent","down","double","Reading"
"6","1",121,604,604,TRUE,0,604,TRUE,39,"right","congruent","up","nocue","Reading"
"6","1",122,644,644,TRUE,0,644,TRUE,37,"left","incongruent","down","center","Reading"
"6","1",123,625,625,TRUE,0,625,TRUE,39,"right","neutral","down","center","Reading"
"6","1",124,671,671,TRUE,0,671,TRUE,37,"left","incongruent","down","nocue","Reading"
"6","1",125,533,533,TRUE,0,533,TRUE,37,"left","congruent","down","double","Reading"
"6","1",126,638,638,TRUE,0,638,TRUE,39,"right","neutral","up","nocue","Reading"
"6","1",127,598,598,TRUE,0,598,TRUE,37,"left","neutral","up","double","Reading"
"6","1",128,546,546,TRUE,0,546,TRUE,37,"left","neutral","down","nocue","Reading"
"6","1",129,557,557,TRUE,0,557,TRUE,39,"right","neutral","down","double","Reading"
"6","1",130,394,394,TRUE,0,394,TRUE,39,"right","congruent","down","spatial","Reading"
"6","1",131,531,531,TRUE,0,531,TRUE,39,"right","incongruent","down","double","Reading"
"6","1",132,795,795,TRUE,0,795,TRUE,39,"right","neutral","up","double","Reading"
"6","1",133,602,602,TRUE,0,602,TRUE,39,"right","congruent","up","center","Reading"
"6","1",134,848,848,TRUE,0,848,TRUE,37,"left","neutral","up","spatial","Reading"
"6","1",135,433,433,TRUE,0,433,TRUE,37,"left","congruent","down","spatial","Reading"
"6","1",136,689,689,TRUE,0,689,TRUE,39,"right","incongruent","down","nocue","Reading"
"6","1",137,618,618,TRUE,0,618,TRUE,39,"right","neutral","down","nocue","Reading"
"6","1",138,715,715,TRUE,0,715,TRUE,39,"right","congruent","up","double","Reading"
"6","1",139,591,591,TRUE,0,591,TRUE,39,"right","incongruent","down","center","Reading"
"6","1",140,683,683,TRUE,0,683,TRUE,37,"left","incongruent","up","double","Reading"
"6","1",141,630,630,TRUE,0,630,TRUE,39,"right","congruent","down","center","Reading"
"6","1",142,474,474,TRUE,0,474,TRUE,39,"right","incongruent","up","spatial","Reading"
"6","1",143,745,745,TRUE,0,745,TRUE,37,"left","congruent","up","double","Reading"
"6","1",144,620,620,TRUE,0,620,TRUE,39,"right","congruent","up","spatial","Reading"
"6","2",1,572,572,TRUE,0,572,TRUE,37,"left","neutral","down","center","Reading"
"6","2",2,414,414,TRUE,0,414,TRUE,37,"left","neutral","up","nocue","Reading"
"6","2",3,390,390,TRUE,0,390,TRUE,37,"left","congruent","down","spatial","Reading"
"6","2",4,545,545,TRUE,0,545,TRUE,37,"left","incongruent","down","center","Reading"
"6","2",5,629,629,TRUE,0,629,TRUE,39,"right","congruent","down","nocue","Reading"
"6","2",6,431,431,TRUE,0,431,TRUE,39,"right","neutral","down","spatial","Reading"
"6","2",8,636,636,TRUE,0,636,TRUE,37,"left","incongruent","up","center","Reading"
"6","2",9,669,669,TRUE,0,669,TRUE,37,"left","congruent","up","nocue","Reading"
"6","2",10,577,577,TRUE,0,577,TRUE,39,"right","neutral","up","nocue","Reading"
"6","2",12,403,403,TRUE,0,403,TRUE,39,"right","neutral","up","spatial","Reading"
"6","2",13,799,799,TRUE,0,799,TRUE,39,"right","congruent","up","nocue","Reading"
"6","2",14,553,553,TRUE,0,553,TRUE,39,"right","incongruent","up","center","Reading"
"6","2",15,434,434,TRUE,0,434,TRUE,39,"right","neutral","up","double","Reading"
"6","2",16,494,494,TRUE,0,494,TRUE,37,"left","incongruent","up","double","Reading"
"6","2",17,430,430,TRUE,0,430,TRUE,39,"right","incongruent","up","spatial","Reading"
"6","2",18,723,723,TRUE,0,723,TRUE,37,"left","congruent","down","nocue","Reading"
"6","2",19,496,496,TRUE,0,496,TRUE,37,"left","incongruent","down","spatial","Reading"
"6","2",20,663,663,TRUE,0,663,TRUE,39,"right","congruent","down","center","Reading"
"6","2",21,503,503,TRUE,0,503,TRUE,37,"left","incongruent","up","spatial","Reading"
"6","2",22,649,649,TRUE,0,649,TRUE,39,"right","incongruent","up","double","Reading"
"6","2",23,663,663,TRUE,0,663,TRUE,39,"right","incongruent","down","spatial","Reading"
"6","2",24,669,669,TRUE,0,669,TRUE,37,"left","incongruent","down","nocue","Reading"
"6","2",25,483,483,TRUE,0,483,TRUE,37,"left","incongruent","down","double","Reading"
"6","2",26,565,565,TRUE,0,565,TRUE,37,"left","congruent","up","spatial","Reading"
"6","2",27,447,447,TRUE,0,447,TRUE,37,"left","congruent","up","double","Reading"
"6","2",28,682,682,TRUE,0,682,TRUE,39,"right","congruent","down","spatial","Reading"
"6","2",29,748,748,TRUE,0,748,TRUE,37,"left","congruent","down","center","Reading"
"6","2",30,511,511,TRUE,0,511,TRUE,37,"left","neutral","down","spatial","Reading"
"6","2",31,494,494,TRUE,0,494,TRUE,39,"right","neutral","down","nocue","Reading"
"6","2",32,528,528,TRUE,0,528,TRUE,39,"right","congruent","down","double","Reading"
"6","2",33,618,618,TRUE,0,618,TRUE,37,"left","congruent","up","center","Reading"
"6","2",34,586,586,TRUE,0,586,TRUE,39,"right","neutral","down","center","Reading"
"6","2",35,572,572,TRUE,0,572,TRUE,39,"right","congruent","up","center","Reading"
"6","2",36,614,614,TRUE,0,614,TRUE,37,"left","neutral","down","nocue","Reading"
"6","2",37,444,444,TRUE,0,444,TRUE,39,"right","congruent","up","spatial","Reading"
"6","2",38,748,748,TRUE,0,748,TRUE,37,"left","incongruent","up","nocue","Reading"
"6","2",39,583,583,TRUE,0,583,TRUE,37,"left","congruent","down","double","Reading"
"6","2",40,655,655,TRUE,0,655,TRUE,39,"right","incongruent","up","nocue","Reading"
"6","2",41,640,640,TRUE,0,640,TRUE,39,"right","incongruent","down","double","Reading"
"6","2",42,585,585,TRUE,0,585,TRUE,37,"left","neutral","up","double","Reading"
"6","2",43,402,402,TRUE,0,402,TRUE,37,"left","neutral","down","double","Reading"
"6","2",44,564,564,TRUE,0,564,TRUE,39,"right","incongruent","down","nocue","Reading"
"6","2",45,433,433,TRUE,0,433,TRUE,39,"right","neutral","down","double","Reading"
"6","2",46,730,730,TRUE,0,730,TRUE,37,"left","neutral","up","center","Reading"
"6","2",47,500,500,TRUE,0,500,TRUE,39,"right","neutral","up","center","Reading"
"6","2",48,367,367,TRUE,0,367,TRUE,37,"left","neutral","up","spatial","Reading"
"6","2",49,538,538,TRUE,0,538,TRUE,37,"left","congruent","down","nocue","Reading"
"6","2",50,556,556,TRUE,0,556,TRUE,37,"left","congruent","up","center","Reading"
"6","2",51,676,676,TRUE,0,676,TRUE,39,"right","incongruent","down","spatial","Reading"
"6","2",52,570,570,TRUE,0,570,TRUE,39,"right","incongruent","up","center","Reading"
"6","2",53,883,883,TRUE,0,883,TRUE,39,"right","incongruent","down","nocue","Reading"
"6","2",54,564,564,TRUE,0,564,TRUE,37,"left","incongruent","up","spatial","Reading"
"6","2",55,480,480,TRUE,0,480,TRUE,37,"left","incongruent","up","double","Reading"
"6","2",56,485,485,TRUE,0,485,TRUE,37,"left","neutral","down","center","Reading"
"6","2",57,923,923,TRUE,0,923,TRUE,39,"right","neutral","up","nocue","Reading"
"6","2",58,535,535,TRUE,0,535,TRUE,39,"right","neutral","down","spatial","Reading"
"6","2",59,522,522,TRUE,0,522,TRUE,37,"left","neutral","up","double","Reading"
"6","2",60,717,717,TRUE,0,717,TRUE,39,"right","incongruent","up","nocue","Reading"
"6","2",61,581,581,TRUE,0,581,TRUE,39,"right","incongruent","down","center","Reading"
"6","2",62,513,513,TRUE,0,513,TRUE,37,"left","neutral","down","spatial","Reading"
"6","2",63,421,421,TRUE,0,421,TRUE,39,"right","neutral","up","spatial","Reading"
"6","2",64,676,676,TRUE,0,676,TRUE,39,"right","neutral","up","double","Reading"
"6","2",65,529,529,TRUE,0,529,TRUE,37,"left","congruent","down","spatial","Reading"
"6","2",66,638,638,TRUE,0,638,TRUE,39,"right","incongruent","up","double","Reading"
"6","2",67,562,562,TRUE,0,562,TRUE,37,"left","neutral","up","center","Reading"
"6","2",68,644,644,TRUE,0,644,TRUE,39,"right","congruent","down","spatial","Reading"
"6","2",69,741,741,TRUE,0,741,TRUE,39,"right","congruent","down","center","Reading"
"6","2",70,507,507,TRUE,0,507,TRUE,37,"left","neutral","down","double","Reading"
"6","2",71,769,769,TRUE,0,769,TRUE,39,"right","congruent","up","center","Reading"
"6","2",72,539,539,TRUE,0,539,TRUE,37,"left","neutral","down","nocue","Reading"
"6","2",73,470,470,TRUE,0,470,TRUE,37,"left","congruent","up","spatial","Reading"
"6","2",74,427,427,TRUE,0,427,TRUE,37,"left","congruent","up","nocue","Reading"
"6","2",75,674,674,TRUE,0,674,TRUE,39,"right","congruent","down","nocue","Reading"
"6","2",76,562,562,TRUE,0,562,TRUE,37,"left","incongruent","down","center","Reading"
"6","2",77,813,813,TRUE,0,813,TRUE,37,"left","incongruent","up","center","Reading"
"6","2",78,832,832,TRUE,0,832,TRUE,37,"left","incongruent","up","nocue","Reading"
"6","2",79,699,699,TRUE,0,699,TRUE,39,"right","neutral","down","center","Reading"
"6","2",80,537,537,TRUE,0,537,TRUE,37,"left","incongruent","down","double","Reading"
"6","2",81,630,630,TRUE,0,630,TRUE,39,"right","congruent","up","double","Reading"
"6","2",82,429,429,TRUE,0,429,TRUE,37,"left","neutral","up","spatial","Reading"
"6","2",83,722,722,TRUE,0,722,TRUE,37,"left","neutral","up","nocue","Reading"
"6","2",84,681,681,TRUE,0,681,TRUE,39,"right","incongruent","down","double","Reading"
"6","2",85,858,858,TRUE,0,858,TRUE,39,"right","congruent","up","nocue","Reading"
"6","2",86,595,595,TRUE,0,595,TRUE,37,"left","congruent","down","double","Reading"
"6","2",87,569,569,TRUE,0,569,TRUE,37,"left","congruent","down","center","Reading"
"6","2",88,690,690,TRUE,0,690,TRUE,39,"right","neutral","down","nocue","Reading"
"6","2",89,480,480,TRUE,0,480,TRUE,39,"right","neutral","down","double","Reading"
"6","2",90,741,741,TRUE,0,741,TRUE,37,"left","congruent","up","double","Reading"
"6","2",91,471,471,TRUE,0,471,TRUE,39,"right","neutral","up","center","Reading"
"6","2",92,627,627,TRUE,0,627,TRUE,39,"right","congruent","up","spatial","Reading"
"6","2",93,915,915,TRUE,0,915,TRUE,37,"left","incongruent","down","nocue","Reading"
"6","2",94,888,888,TRUE,0,888,TRUE,39,"right","incongruent","up","spatial","Reading"
"6","2",95,582,582,TRUE,0,582,TRUE,39,"right","congruent","down","double","Reading"
"6","2",96,640,640,TRUE,0,640,TRUE,37,"left","incongruent","down","spatial","Reading"
"6","2",97,481,481,TRUE,0,481,TRUE,37,"left","congruent","up","double","Reading"
"6","2",98,556,556,TRUE,0,556,TRUE,39,"right","congruent","up","center","Reading"
"6","2",99,584,584,TRUE,0,584,TRUE,39,"right","congruent","down","spatial","Reading"
"6","2",100,443,443,TRUE,0,443,TRUE,37,"left","congruent","down","center","Reading"
"6","2",101,358,358,TRUE,0,358,TRUE,37,"left","congruent","down","spatial","Reading"
"6","2",102,625,625,TRUE,0,625,TRUE,39,"right","neutral","up","double","Reading"
"6","2",103,598,598,TRUE,0,598,TRUE,39,"right","incongruent","up","center","Reading"
"6","2",104,612,612,TRUE,0,612,TRUE,39,"right","neutral","up","nocue","Reading"
"6","2",105,529,529,TRUE,0,529,TRUE,39,"right","incongruent","down","spatial","Reading"
"6","2",106,455,455,TRUE,0,455,TRUE,39,"right","incongruent","up","double","Reading"
"6","2",107,616,616,TRUE,0,616,TRUE,39,"right","incongruent","up","nocue","Reading"
"6","2",108,540,540,TRUE,0,540,TRUE,39,"right","incongruent","down","double","Reading"
"6","2",109,535,535,TRUE,0,535,TRUE,39,"right","congruent","up","spatial","Reading"
"6","2",110,706,706,TRUE,0,706,TRUE,37,"left","congruent","down","nocue","Reading"
"6","2",111,560,560,TRUE,0,560,TRUE,39,"right","congruent","down","nocue","Reading"
"6","2",112,398,398,TRUE,0,398,TRUE,37,"left","neutral","down","spatial","Reading"
"6","2",113,686,686,TRUE,0,686,TRUE,39,"right","congruent","up","nocue","Reading"
"6","2",114,496,496,TRUE,0,496,TRUE,39,"right","congruent","down","center","Reading"
"6","2",115,520,520,TRUE,0,520,TRUE,37,"left","neutral","up","spatial","Reading"
"6","2",116,649,649,TRUE,0,649,TRUE,37,"left","neutral","up","double","Reading"
"6","2",117,643,643,TRUE,0,643,TRUE,39,"right","neutral","down","double","Reading"
"6","2",118,573,573,TRUE,0,573,TRUE,39,"right","incongruent","down","nocue","Reading"
"6","2",119,508,508,TRUE,0,508,TRUE,37,"left","incongruent","down","double","Reading"
"6","2",120,646,646,TRUE,0,646,TRUE,37,"left","neutral","up","center","Reading"
"6","2",121,696,696,TRUE,0,696,TRUE,37,"left","congruent","up","center","Reading"
"6","2",122,633,633,TRUE,0,633,TRUE,39,"right","congruent","up","double","Reading"
"6","2",123,767,767,TRUE,0,767,TRUE,39,"right","neutral","down","nocue","Reading"
"6","2",124,910,910,TRUE,0,910,TRUE,37,"left","incongruent","up","nocue","Reading"
"6","2",125,885,885,TRUE,0,885,TRUE,37,"left","incongruent","down","center","Reading"
"6","2",126,586,586,TRUE,0,586,TRUE,39,"right","neutral","down","spatial","Reading"
"6","2",127,591,591,TRUE,0,591,TRUE,39,"right","neutral","down","center","Reading"
"6","2",128,541,541,TRUE,0,541,TRUE,37,"left","incongruent","down","spatial","Reading"
"6","2",129,630,630,TRUE,0,630,TRUE,39,"right","neutral","up","spatial","Reading"
"6","2",130,526,526,TRUE,0,526,TRUE,37,"left","neutral","down","center","Reading"
"6","2",131,569,569,TRUE,0,569,TRUE,39,"right","incongruent","down","center","Reading"
"6","2",132,715,715,TRUE,0,715,TRUE,37,"left","congruent","up","nocue","Reading"
"6","2",133,729,729,TRUE,0,729,TRUE,37,"left","neutral","down","nocue","Reading"
"6","2",134,654,654,TRUE,0,654,TRUE,39,"right","incongruent","up","spatial","Reading"
"6","2",135,609,609,TRUE,0,609,TRUE,37,"left","incongruent","up","double","Reading"
"6","2",136,607,607,TRUE,0,607,TRUE,39,"right","neutral","up","center","Reading"
"6","2",137,564,564,TRUE,0,564,TRUE,37,"left","congruent","up","spatial","Reading"
"6","2",138,684,684,TRUE,0,684,TRUE,39,"right","congruent","down","double","Reading"
"6","2",139,699,699,TRUE,0,699,TRUE,37,"left","neutral","up","nocue","Reading"
"6","2",140,523,523,TRUE,0,523,TRUE,37,"left","congruent","down","double","Reading"
"6","2",141,501,501,TRUE,0,501,TRUE,37,"left","incongruent","up","center","Reading"
"6","2",142,820,820,TRUE,0,820,TRUE,37,"left","incongruent","down","nocue","Reading"
"6","2",143,490,490,TRUE,0,490,TRUE,37,"left","neutral","down","double","Reading"
"6","2",144,483,483,TRUE,0,483,TRUE,37,"left","incongruent","up","spatial","Reading"
"3","1",1,511,511,TRUE,0,511,TRUE,37,"left","incongruent","down","center","FAM"
"3","1",2,574,574,TRUE,0,574,TRUE,37,"left","congruent","down","nocue","FAM"
"3","1",3,616,616,TRUE,0,616,TRUE,39,"right","congruent","down","nocue","FAM"
"3","1",4,491,491,TRUE,0,491,TRUE,39,"right","neutral","down","spatial","FAM"
"3","1",5,466,466,TRUE,0,466,TRUE,39,"right","congruent","up","spatial","FAM"
"3","1",6,549,549,TRUE,0,549,TRUE,37,"left","neutral","up","double","FAM"
"3","1",7,548,548,TRUE,0,548,TRUE,39,"right","incongruent","down","center","FAM"
"3","1",8,516,516,TRUE,0,516,TRUE,39,"right","neutral","down","center","FAM"
"3","1",9,470,470,TRUE,0,470,TRUE,37,"left","neutral","up","center","FAM"
"3","1",10,448,448,TRUE,0,448,TRUE,37,"left","incongruent","up","double","FAM"
"3","1",11,698,698,TRUE,0,698,TRUE,39,"right","incongruent","down","double","FAM"
"3","1",12,580,580,TRUE,0,580,TRUE,37,"left","congruent","down","double","FAM"
"3","1",13,543,543,TRUE,0,543,TRUE,39,"right","congruent","down","spatial","FAM"
"3","1",14,515,515,TRUE,0,515,TRUE,39,"right","neutral","up","double","FAM"
"3","1",15,548,548,TRUE,0,548,TRUE,39,"right","congruent","up","center","FAM"
"3","1",16,620,620,TRUE,0,620,TRUE,39,"right","neutral","down","nocue","FAM"
"3","1",17,578,578,TRUE,0,578,TRUE,39,"right","incongruent","up","center","FAM"
"3","1",18,564,564,TRUE,0,564,TRUE,37,"left","neutral","down","nocue","FAM"
"3","1",19,528,528,TRUE,0,528,TRUE,39,"right","incongruent","down","spatial","FAM"
"3","1",20,538,538,TRUE,0,538,TRUE,37,"left","incongruent","up","center","FAM"
"3","1",21,481,481,TRUE,0,481,TRUE,37,"left","incongruent","up","spatial","FAM"
"3","1",22,618,618,TRUE,0,618,TRUE,39,"right","incongruent","down","nocue","FAM"
"3","1",23,699,699,TRUE,0,699,TRUE,39,"right","congruent","down","double","FAM"
"3","1",24,757,757,TRUE,0,757,TRUE,39,"right","incongruent","up","double","FAM"
"3","1",25,507,507,TRUE,0,507,TRUE,39,"right","neutral","up","spatial","FAM"
"3","1",26,545,545,TRUE,0,545,TRUE,39,"right","congruent","down","center","FAM"
"3","1",27,542,542,TRUE,0,542,TRUE,39,"right","congruent","up","nocue","FAM"
"3","1",28,547,547,TRUE,0,547,TRUE,37,"left","congruent","down","center","FAM"
"3","1",29,444,444,TRUE,0,444,TRUE,39,"right","incongruent","up","spatial","FAM"
"3","1",30,395,395,TRUE,0,395,TRUE,37,"left","congruent","up","spatial","FAM"
"3","1",31,522,522,TRUE,0,522,TRUE,37,"left","congruent","up","double","FAM"
"3","1",32,611,611,TRUE,0,611,TRUE,39,"right","neutral","up","center","FAM"
"3","1",33,462,462,TRUE,0,462,TRUE,37,"left","incongruent","up","nocue","FAM"
"3","1",34,538,538,TRUE,0,538,TRUE,37,"left","neutral","down","spatial","FAM"
"3","1",35,553,553,TRUE,0,553,TRUE,37,"left","congruent","up","center","FAM"
"3","1",36,487,487,TRUE,0,487,TRUE,37,"left","congruent","down","spatial","FAM"
"3","1",37,612,612,TRUE,0,612,TRUE,37,"left","congruent","up","nocue","FAM"
"3","1",38,698,698,TRUE,0,698,TRUE,37,"left","incongruent","down","double","FAM"
"3","1",39,530,530,TRUE,0,530,TRUE,37,"left","incongruent","down","spatial","FAM"
"3","1",40,739,739,TRUE,0,739,TRUE,39,"right","neutral","up","nocue","FAM"
"3","1",41,475,475,TRUE,0,475,TRUE,37,"left","neutral","down","center","FAM"
"3","1",42,474,474,TRUE,0,474,TRUE,37,"left","neutral","up","nocue","FAM"
"3","1",43,616,616,TRUE,0,616,TRUE,39,"right","congruent","up","double","FAM"
"3","1",44,733,733,TRUE,0,733,TRUE,39,"right","incongruent","up","nocue","FAM"
"3","1",45,504,504,TRUE,0,504,TRUE,37,"left","neutral","down","double","FAM"
"3","1",46,649,649,TRUE,0,649,TRUE,39,"right","neutral","down","double","FAM"
"3","1",47,429,429,TRUE,0,429,TRUE,37,"left","neutral","up","spatial","FAM"
"3","1",48,687,687,TRUE,0,687,TRUE,37,"left","incongruent","down","nocue","FAM"
"3","1",49,414,414,TRUE,0,414,TRUE,37,"left","incongruent","up","spatial","FAM"
"3","1",50,696,696,TRUE,0,696,TRUE,39,"right","congruent","up","nocue","FAM"
"3","1",51,504,504,TRUE,0,504,TRUE,37,"left","congruent","down","nocue","FAM"
"3","1",52,509,509,TRUE,0,509,TRUE,37,"left","incongruent","up","center","FAM"
"3","1",53,502,502,TRUE,0,502,TRUE,39,"right","neutral","up","spatial","FAM"
"3","1",54,503,503,TRUE,0,503,TRUE,37,"left","neutral","up","nocue","FAM"
"3","1",55,496,496,TRUE,0,496,TRUE,39,"right","neutral","down","spatial","FAM"
"3","1",56,433,433,TRUE,0,433,TRUE,37,"left","neutral","up","center","FAM"
"3","1",57,533,533,TRUE,0,533,TRUE,37,"left","incongruent","down","nocue","FAM"
"3","1",58,567,567,TRUE,0,567,TRUE,37,"left","incongruent","down","double","FAM"
"3","1",59,452,452,TRUE,0,452,TRUE,37,"left","congruent","up","nocue","FAM"
"3","1",60,472,472,TRUE,0,472,TRUE,37,"left","congruent","down","center","FAM"
"3","1",61,668,668,TRUE,0,668,TRUE,39,"right","incongruent","down","double","FAM"
"3","1",62,463,463,TRUE,0,463,TRUE,37,"left","congruent","up","center","FAM"
"3","1",63,639,639,TRUE,0,639,TRUE,39,"right","incongruent","down","nocue","FAM"
"3","1",64,594,594,TRUE,0,594,TRUE,39,"right","incongruent","down","center","FAM"
"3","1",65,680,680,TRUE,0,680,TRUE,39,"right","neutral","down","nocue","FAM"
"3","1",66,505,505,TRUE,0,505,TRUE,37,"left","incongruent","down","spatial","FAM"
"3","1",67,523,523,TRUE,0,523,TRUE,39,"right","neutral","down","center","FAM"
"3","1",68,588,588,TRUE,0,588,TRUE,39,"right","congruent","down","nocue","FAM"
"3","1",69,628,628,TRUE,0,628,TRUE,39,"right","neutral","up","double","FAM"
"3","1",70,433,433,TRUE,0,433,TRUE,37,"left","congruent","up","spatial","FAM"
"3","1",71,494,494,TRUE,0,494,TRUE,39,"right","congruent","down","double","FAM"
"3","1",72,495,495,TRUE,0,495,TRUE,39,"right","neutral","up","center","FAM"
"3","1",73,564,564,TRUE,0,564,TRUE,37,"left","congruent","up","double","FAM"
"3","1",74,456,456,TRUE,0,456,TRUE,37,"left","incongruent","up","double","FAM"
"3","1",75,493,493,TRUE,0,493,TRUE,39,"right","congruent","down","center","FAM"
"3","1",76,388,388,TRUE,0,388,TRUE,37,"left","neutral","down","spatial","FAM"
"3","1",77,550,550,TRUE,0,550,TRUE,39,"right","incongruent","up","center","FAM"
"3","1",78,552,552,TRUE,0,552,TRUE,37,"left","neutral","down","double","FAM"
"3","1",79,452,452,TRUE,0,452,TRUE,37,"left","neutral","up","double","FAM"
"3","1",80,514,514,TRUE,0,514,TRUE,37,"left","incongruent","up","nocue","FAM"
"3","1",81,481,481,TRUE,0,481,TRUE,37,"left","neutral","down","center","FAM"
"3","1",82,411,411,TRUE,0,411,TRUE,37,"left","incongruent","down","center","FAM"
"3","1",83,467,467,TRUE,0,467,TRUE,39,"right","incongruent","up","double","FAM"
"3","1",84,473,473,TRUE,0,473,TRUE,39,"right","incongruent","down","spatial","FAM"
"3","1",85,756,756,TRUE,0,756,TRUE,39,"right","congruent","up","spatial","FAM"
"3","1",86,601,601,TRUE,0,601,TRUE,39,"right","neutral","down","double","FAM"
"3","1",87,365,365,TRUE,0,365,TRUE,37,"left","congruent","down","spatial","FAM"
"3","1",88,344,344,TRUE,0,344,TRUE,39,"right","incongruent","up","spatial","FAM"
"3","1",89,490,490,TRUE,0,490,TRUE,37,"left","neutral","down","nocue","FAM"
"3","1",90,588,588,TRUE,0,588,TRUE,39,"right","neutral","up","nocue","FAM"
"3","1",91,431,431,TRUE,0,431,TRUE,37,"left","congruent","down","double","FAM"
"3","1",92,496,496,TRUE,0,496,TRUE,39,"right","congruent","up","center","FAM"
"3","1",93,542,542,TRUE,0,542,TRUE,39,"right","congruent","up","double","FAM"
"3","1",94,375,375,TRUE,0,375,TRUE,37,"left","neutral","up","spatial","FAM"
"3","1",96,421,421,TRUE,0,421,TRUE,39,"right","congruent","down","spatial","FAM"
"3","1",97,510,510,TRUE,0,510,TRUE,37,"left","congruent","up","center","FAM"
"3","1",98,504,504,TRUE,0,504,TRUE,39,"right","neutral","down","center","FAM"
"3","1",99,469,469,TRUE,0,469,TRUE,37,"left","neutral","down","double","FAM"
"3","1",100,538,538,TRUE,0,538,TRUE,39,"right","neutral","down","nocue","FAM"
"3","1",101,513,513,TRUE,0,513,TRUE,39,"right","congruent","down","center","FAM"
"3","1",102,412,412,TRUE,0,412,TRUE,37,"left","incongruent","down","spatial","FAM"
"3","1",103,434,434,TRUE,0,434,TRUE,39,"right","incongruent","up","spatial","FAM"
"3","1",104,518,518,TRUE,0,518,TRUE,39,"right","neutral","up","center","FAM"
"3","1",105,506,506,TRUE,0,506,TRUE,37,"left","neutral","up","nocue","FAM"
"3","1",106,558,558,TRUE,0,558,TRUE,39,"right","incongruent","up","double","FAM"
"3","1",107,484,484,TRUE,0,484,TRUE,39,"right","congruent","up","center","FAM"
"3","1",108,379,379,TRUE,0,379,TRUE,39,"right","neutral","up","double","FAM"
"3","1",109,669,669,TRUE,0,669,TRUE,39,"right","incongruent","down","double","FAM"
"3","1",110,400,400,TRUE,0,400,TRUE,37,"left","congruent","down","spatial","FAM"
"3","1",111,473,473,TRUE,0,473,TRUE,39,"right","incongruent","down","center","FAM"
"3","1",113,528,528,TRUE,0,528,TRUE,37,"left","incongruent","down","center","FAM"
"3","1",114,503,503,TRUE,0,503,TRUE,37,"left","neutral","down","nocue","FAM"
"3","1",115,326,326,TRUE,0,326,TRUE,39,"right","congruent","up","spatial","FAM"
"3","1",116,496,496,TRUE,0,496,TRUE,37,"left","neutral","down","center","FAM"
"3","1",117,395,395,TRUE,0,395,TRUE,39,"right","neutral","up","spatial","FAM"
"3","1",118,354,354,TRUE,0,354,TRUE,37,"left","congruent","up","spatial","FAM"
"3","1",119,565,565,TRUE,0,565,TRUE,37,"left","neutral","up","double","FAM"
"3","1",120,446,446,TRUE,0,446,TRUE,37,"left","neutral","up","center","FAM"
"3","1",121,477,477,TRUE,0,477,TRUE,39,"right","congruent","down","spatial","FAM"
"3","1",122,581,581,TRUE,0,581,TRUE,39,"right","incongruent","up","nocue","FAM"
"3","1",123,428,428,TRUE,0,428,TRUE,39,"right","neutral","down","spatial","FAM"
"3","1",124,500,500,TRUE,0,500,TRUE,39,"right","incongruent","up","center","FAM"
"3","1",125,541,541,TRUE,0,541,TRUE,37,"left","incongruent","down","nocue","FAM"
"3","1",126,646,646,TRUE,0,646,TRUE,39,"right","neutral","down","double","FAM"
"3","1",127,461,461,TRUE,0,461,TRUE,37,"left","congruent","down","nocue","FAM"
"3","1",128,429,429,TRUE,0,429,TRUE,37,"left","congruent","down","center","FAM"
"3","1",129,623,623,TRUE,0,623,TRUE,39,"right","incongruent","down","nocue","FAM"
"3","1",130,534,534,TRUE,0,534,TRUE,39,"right","congruent","down","double","FAM"
"3","1",131,556,556,TRUE,0,556,TRUE,37,"left","incongruent","up","double","FAM"
"3","1",132,532,532,TRUE,0,532,TRUE,39,"right","neutral","up","nocue","FAM"
"3","1",133,478,478,TRUE,0,478,TRUE,37,"left","congruent","down","double","FAM"
"3","1",134,397,397,TRUE,0,397,TRUE,39,"right","incongruent","down","spatial","FAM"
"3","1",135,605,605,TRUE,0,605,TRUE,39,"right","congruent","up","nocue","FAM"
"3","1",136,541,541,TRUE,0,541,TRUE,37,"left","congruent","up","double","FAM"
"3","1",137,486,486,TRUE,0,486,TRUE,39,"right","congruent","down","nocue","FAM"
"3","1",138,476,476,TRUE,0,476,TRUE,37,"left","incongruent","up","nocue","FAM"
"3","1",139,578,578,TRUE,0,578,TRUE,37,"left","congruent","up","nocue","FAM"
"3","1",140,493,493,TRUE,0,493,TRUE,37,"left","incongruent","down","double","FAM"
"3","1",141,421,421,TRUE,0,421,TRUE,37,"left","neutral","up","spatial","FAM"
"3","1",142,361,361,TRUE,0,361,TRUE,37,"left","neutral","down","spatial","FAM"
"3","1",143,402,402,TRUE,0,402,TRUE,37,"left","incongruent","up","spatial","FAM"
"3","1",144,621,621,TRUE,0,621,TRUE,39,"right","congruent","up","double","FAM"
"3","2",1,716,716,TRUE,0,716,TRUE,39,"right","incongruent","down","double","FAM"
"3","2",2,531,531,TRUE,0,531,TRUE,39,"right","neutral","up","double","FAM"
"3","2",3,496,496,TRUE,0,496,TRUE,37,"left","neutral","down","nocue","FAM"
"3","2",4,510,510,TRUE,0,510,TRUE,37,"left","neutral","up","center","FAM"
"3","2",5,625,625,TRUE,0,625,TRUE,37,"left","congruent","up","nocue","FAM"
"3","2",6,476,476,TRUE,0,476,TRUE,37,"left","incongruent","up","nocue","FAM"
"3","2",7,589,589,TRUE,0,589,TRUE,39,"right","incongruent","down","nocue","FAM"
"3","2",8,523,523,TRUE,0,523,TRUE,39,"right","neutral","down","center","FAM"
"3","2",9,719,719,TRUE,0,719,TRUE,37,"left","neutral","down","spatial","FAM"
"3","2",10,446,446,TRUE,0,446,TRUE,39,"right","congruent","up","nocue","FAM"
"3","2",11,577,577,TRUE,0,577,TRUE,39,"right","incongruent","up","center","FAM"
"3","2",12,535,535,TRUE,0,535,TRUE,39,"right","congruent","down","nocue","FAM"
"3","2",13,452,452,TRUE,0,452,TRUE,37,"left","congruent","up","double","FAM"
"3","2",14,480,480,TRUE,0,480,TRUE,37,"left","congruent","down","center","FAM"
"3","2",15,511,511,TRUE,0,511,TRUE,39,"right","neutral","down","nocue","FAM"
"3","2",16,361,361,TRUE,0,361,TRUE,37,"left","congruent","up","spatial","FAM"
"3","2",18,436,436,TRUE,0,436,TRUE,39,"right","congruent","up","spatial","FAM"
"3","2",19,577,577,TRUE,0,577,TRUE,39,"right","congruent","up","center","FAM"
"3","2",20,428,428,TRUE,0,428,TRUE,39,"right","congruent","down","spatial","FAM"
"3","2",21,468,468,TRUE,0,468,TRUE,37,"left","congruent","down","nocue","FAM"
"3","2",22,472,472,TRUE,0,472,TRUE,37,"left","congruent","up","center","FAM"
"3","2",23,563,563,TRUE,0,563,TRUE,37,"left","incongruent","up","center","FAM"
"3","2",24,578,578,TRUE,0,578,TRUE,39,"right","incongruent","up","nocue","FAM"
"3","2",25,523,523,TRUE,0,523,TRUE,37,"left","incongruent","down","nocue","FAM"
"3","2",26,368,368,TRUE,0,368,TRUE,39,"right","neutral","up","spatial","FAM"
"3","2",27,472,472,TRUE,0,472,TRUE,37,"left","congruent","down","double","FAM"
"3","2",28,505,505,TRUE,0,505,TRUE,39,"right","incongruent","up","spatial","FAM"
"3","2",29,492,492,TRUE,0,492,TRUE,37,"left","neutral","up","double","FAM"
"3","2",30,403,403,TRUE,0,403,TRUE,37,"left","incongruent","down","spatial","FAM"
"3","2",31,724,724,TRUE,0,724,TRUE,39,"right","neutral","up","nocue","FAM"
"3","2",32,517,517,TRUE,0,517,TRUE,39,"right","congruent","down","center","FAM"
"3","2",33,535,535,TRUE,0,535,TRUE,39,"right","neutral","down","spatial","FAM"
"3","2",34,374,374,TRUE,0,374,TRUE,37,"left","congruent","down","spatial","FAM"
"3","2",35,498,498,TRUE,0,498,TRUE,37,"left","incongruent","up","double","FAM"
"3","2",36,430,430,TRUE,0,430,TRUE,37,"left","incongruent","down","double","FAM"
"3","2",37,512,512,TRUE,0,512,TRUE,37,"left","neutral","down","center","FAM"
"3","2",38,476,476,TRUE,0,476,TRUE,39,"right","incongruent","down","center","FAM"
"3","2",39,428,428,TRUE,0,428,TRUE,37,"left","incongruent","up","spatial","FAM"
"3","2",40,762,762,TRUE,0,762,TRUE,39,"right","incongruent","up","double","FAM"
"3","2",41,530,530,TRUE,0,530,TRUE,39,"right","congruent","down","double","FAM"
"3","2",42,500,500,TRUE,0,500,TRUE,37,"left","incongruent","down","center","FAM"
"3","2",43,473,473,TRUE,0,473,TRUE,39,"right","neutral","down","double","FAM"
"3","2",44,596,596,TRUE,0,596,TRUE,37,"left","neutral","up","spatial","FAM"
"3","2",45,416,416,TRUE,0,416,TRUE,39,"right","congruent","up","double","FAM"
"3","2",46,400,400,TRUE,0,400,TRUE,39,"right","incongruent","down","spatial","FAM"
"3","2",47,608,608,TRUE,0,608,TRUE,37,"left","neutral","down","double","FAM"
"3","2",48,557,557,TRUE,0,557,TRUE,39,"right","neutral","up","center","FAM"
"3","2",49,611,611,TRUE,0,611,TRUE,39,"right","incongruent","up","double","FAM"
"3","2",50,423,423,TRUE,0,423,TRUE,39,"right","neutral","down","center","FAM"
"3","2",51,408,408,TRUE,0,408,TRUE,37,"left","congruent","up","nocue","FAM"
"3","2",52,446,446,TRUE,0,446,TRUE,37,"left","incongruent","up","center","FAM"
"3","2",53,510,510,TRUE,0,510,TRUE,37,"left","congruent","up","double","FAM"
"3","2",54,579,579,TRUE,0,579,TRUE,39,"right","neutral","up","double","FAM"
"3","2",55,427,427,TRUE,0,427,TRUE,39,"right","congruent","up","spatial","FAM"
"3","2",56,407,407,TRUE,0,407,TRUE,39,"right","neutral","down","spatial","FAM"
"3","2",57,384,384,TRUE,0,384,TRUE,39,"right","congruent","down","double","FAM"
"3","2",58,607,607,TRUE,0,607,TRUE,39,"right","neutral","down","double","FAM"
"3","2",59,545,545,TRUE,0,545,TRUE,37,"left","congruent","down","center","FAM"
"3","2",60,314,314,TRUE,0,314,TRUE,39,"right","neutral","up","spatial","FAM"
"3","2",61,495,495,TRUE,0,495,TRUE,37,"left","incongruent","down","center","FAM"
"3","2",62,485,485,TRUE,0,485,TRUE,39,"right","congruent","down","center","FAM"
"3","2",63,571,571,TRUE,0,571,TRUE,39,"right","incongruent","up","nocue","FAM"
"3","2",64,500,500,TRUE,0,500,TRUE,37,"left","incongruent","down","nocue","FAM"
"3","2",65,549,549,TRUE,0,549,TRUE,37,"left","incongruent","up","spatial","FAM"
"3","2",66,458,458,TRUE,0,458,TRUE,39,"right","congruent","up","center","FAM"
"3","2",67,426,426,TRUE,0,426,TRUE,39,"right","neutral","down","nocue","FAM"
"3","2",68,501,501,TRUE,0,501,TRUE,37,"left","neutral","down","nocue","FAM"
"3","2",69,565,565,TRUE,0,565,TRUE,39,"right","incongruent","down","nocue","FAM"
"3","2",70,407,407,TRUE,0,407,TRUE,37,"left","congruent","down","spatial","FAM"
"3","2",71,570,570,TRUE,0,570,TRUE,37,"left","neutral","down","center","FAM"
"3","2",72,652,652,TRUE,0,652,TRUE,39,"right","incongruent","down","double","FAM"
"3","2",73,594,594,TRUE,0,594,TRUE,39,"right","congruent","down","nocue","FAM"
"3","2",74,326,326,TRUE,0,326,TRUE,37,"left","congruent","up","spatial","FAM"
"3","2",75,382,382,TRUE,0,382,TRUE,39,"right","incongruent","down","spatial","FAM"
"3","2",76,471,471,TRUE,0,471,TRUE,37,"left","neutral","up","nocue","FAM"
"3","2",77,360,360,TRUE,0,360,TRUE,37,"left","neutral","down","spatial","FAM"
"3","2",78,433,433,TRUE,0,433,TRUE,37,"left","incongruent","down","spatial","FAM"
"3","2",79,514,514,TRUE,0,514,TRUE,37,"left","congruent","down","double","FAM"
"3","2",80,413,413,TRUE,0,413,TRUE,39,"right","congruent","down","spatial","FAM"
"3","2",81,651,651,TRUE,0,651,TRUE,39,"right","neutral","up","center","FAM"
"3","2",82,433,433,TRUE,0,433,TRUE,37,"left","neutral","up","double","FAM"
"3","2",83,485,485,TRUE,0,485,TRUE,39,"right","congruent","up","double","FAM"
"3","2",84,364,364,TRUE,0,364,TRUE,37,"left","neutral","down","double","FAM"
"3","2",85,413,413,TRUE,0,413,TRUE,39,"right","incongruent","up","center","FAM"
"3","2",86,429,429,TRUE,0,429,TRUE,37,"left","incongruent","down","double","FAM"
"3","2",87,519,519,TRUE,0,519,TRUE,37,"left","congruent","up","center","FAM"
"3","2",88,486,486,TRUE,0,486,TRUE,37,"left","neutral","up","center","FAM"
"3","2",89,349,349,TRUE,0,349,TRUE,37,"left","neutral","up","spatial","FAM"
"3","2",90,470,470,TRUE,0,470,TRUE,39,"right","incongruent","down","center","FAM"
"3","2",91,541,541,TRUE,0,541,TRUE,37,"left","incongruent","up","double","FAM"
"3","2",92,383,383,TRUE,0,383,TRUE,39,"right","incongruent","up","spatial","FAM"
"3","2",93,645,645,TRUE,0,645,TRUE,39,"right","neutral","up","nocue","FAM"
"3","2",94,564,564,TRUE,0,564,TRUE,37,"left","congruent","down","nocue","FAM"
"3","2",95,461,461,TRUE,0,461,TRUE,37,"left","incongruent","up","nocue","FAM"
"3","2",96,608,608,TRUE,0,608,TRUE,39,"right","congruent","up","nocue","FAM"
"3","2",97,518,518,TRUE,0,518,TRUE,39,"right","incongruent","up","center","FAM"
"3","2",98,575,575,TRUE,0,575,TRUE,37,"left","incongruent","down","center","FAM"
"3","2",99,542,542,TRUE,0,542,TRUE,37,"left","incongruent","down","spatial","FAM"
"3","2",100,398,398,TRUE,0,398,TRUE,37,"left","incongruent","up","center","FAM"
"3","2",101,475,475,TRUE,0,475,TRUE,37,"left","incongruent","up","nocue","FAM"
"3","2",102,374,374,TRUE,0,374,TRUE,39,"right","neutral","down","spatial","FAM"
"3","2",103,583,583,TRUE,0,583,TRUE,39,"right","neutral","up","nocue","FAM"
"3","2",104,424,424,TRUE,0,424,TRUE,39,"right","incongruent","down","spatial","FAM"
"3","2",105,461,461,TRUE,0,461,TRUE,39,"right","neutral","up","double","FAM"
"3","2",106,554,554,TRUE,0,554,TRUE,37,"left","congruent","up","center","FAM"
"3","2",107,394,394,TRUE,0,394,TRUE,37,"left","neutral","up","spatial","FAM"
"3","2",108,684,684,TRUE,0,684,TRUE,37,"left","neutral","up","center","FAM"
"3","2",109,536,536,TRUE,0,536,TRUE,39,"right","incongruent","down","double","FAM"
"3","2",110,609,609,TRUE,0,609,TRUE,39,"right","congruent","up","center","FAM"
"3","2",111,378,378,TRUE,0,378,TRUE,37,"left","neutral","down","spatial","FAM"
"3","2",112,527,527,TRUE,0,527,TRUE,39,"right","incongruent","down","center","FAM"
"3","2",113,609,609,TRUE,0,609,TRUE,37,"left","incongruent","down","double","FAM"
"3","2",114,636,636,TRUE,0,636,TRUE,37,"left","neutral","up","nocue","FAM"
"3","2",115,435,435,TRUE,0,435,TRUE,39,"right","neutral","down","center","FAM"
"3","2",116,519,519,TRUE,0,519,TRUE,37,"left","neutral","down","nocue","FAM"
"3","2",117,454,454,TRUE,0,454,TRUE,37,"left","neutral","down","center","FAM"
"3","2",118,453,453,TRUE,0,453,TRUE,39,"right","incongruent","up","nocue","FAM"
"3","2",119,383,383,TRUE,0,383,TRUE,39,"right","congruent","up","spatial","FAM"
"3","2",120,543,543,TRUE,0,543,TRUE,39,"right","incongruent","up","double","FAM"
"3","2",121,427,427,TRUE,0,427,TRUE,37,"left","congruent","down","double","FAM"
"3","2",122,451,451,TRUE,0,451,TRUE,39,"right","neutral","down","double","FAM"
"3","2",123,458,458,TRUE,0,458,TRUE,39,"right","congruent","down","nocue","FAM"
"3","2",124,608,608,TRUE,0,608,TRUE,39,"right","congruent","down","center","FAM"
"3","2",125,472,472,TRUE,0,472,TRUE,37,"left","congruent","up","nocue","FAM"
"3","2",126,587,587,TRUE,0,587,TRUE,39,"right","congruent","down","double","FAM"
"3","2",127,562,562,TRUE,0,562,TRUE,37,"left","congruent","down","nocue","FAM"
"3","2",128,596,596,TRUE,0,596,TRUE,37,"left","congruent","down","spatial","FAM"
"3","2",129,405,405,TRUE,0,405,TRUE,39,"right","congruent","up","double","FAM"
"3","2",130,439,439,TRUE,0,439,TRUE,39,"right","neutral","up","center","FAM"
"3","2",131,493,493,TRUE,0,493,TRUE,39,"right","incongruent","up","spatial","FAM"
"3","2",132,514,514,TRUE,0,514,TRUE,37,"left","congruent","down","center","FAM"
"3","2",133,493,493,TRUE,0,493,TRUE,39,"right","incongruent","down","nocue","FAM"
"3","2",134,394,394,TRUE,0,394,TRUE,39,"right","neutral","up","spatial","FAM"
"3","2",135,336,336,TRUE,0,336,TRUE,37,"left","congruent","up","spatial","FAM"
"3","2",136,400,400,TRUE,0,400,TRUE,37,"left","incongruent","up","double","FAM"
"3","2",137,505,505,TRUE,0,505,TRUE,39,"right","neutral","down","nocue","FAM"
"3","2",138,549,549,TRUE,0,549,TRUE,37,"left","incongruent","down","nocue","FAM"
"3","2",139,479,479,TRUE,0,479,TRUE,37,"left","neutral","down","double","FAM"
"3","2",140,407,407,TRUE,0,407,TRUE,37,"left","congruent","up","double","FAM"
"3","2",141,762,762,TRUE,0,762,TRUE,39,"right","congruent","up","nocue","FAM"
"3","2",142,404,404,TRUE,0,404,TRUE,37,"left","incongruent","up","spatial","FAM"
"3","2",143,412,412,TRUE,0,412,TRUE,37,"left","neutral","up","double","FAM"
"3","2",144,513,513,TRUE,0,513,TRUE,39,"right","congruent","down","spatial","FAM"
"10","1",1,559,559,TRUE,0,559,TRUE,37,"left","congruent","up","spatial","Reading"
"10","1",2,509,509,TRUE,0,509,TRUE,39,"right","congruent","up","spatial","Reading"
"10","1",3,603,603,TRUE,0,603,TRUE,39,"right","neutral","up","nocue","Reading"
"10","1",4,537,537,TRUE,0,537,TRUE,37,"left","neutral","down","spatial","Reading"
"10","1",5,544,544,TRUE,0,544,TRUE,37,"left","incongruent","up","center","Reading"
"10","1",6,542,542,TRUE,0,542,TRUE,39,"right","incongruent","up","spatial","Reading"
"10","1",7,329,329,TRUE,0,329,TRUE,37,"left","neutral","up","spatial","Reading"
"10","1",8,426,426,TRUE,0,426,TRUE,39,"right","congruent","down","spatial","Reading"
"10","1",9,530,530,TRUE,0,530,TRUE,39,"right","congruent","up","double","Reading"
"10","1",10,558,558,TRUE,0,558,TRUE,37,"left","incongruent","up","double","Reading"
"10","1",11,811,811,TRUE,0,811,TRUE,39,"right","neutral","down","spatial","Reading"
"10","1",12,547,547,TRUE,0,547,TRUE,37,"left","neutral","down","nocue","Reading"
"10","1",13,544,544,TRUE,0,544,TRUE,37,"left","incongruent","down","center","Reading"
"10","1",14,545,545,TRUE,0,545,TRUE,37,"left","incongruent","down","nocue","Reading"
"10","1",17,662,662,TRUE,0,662,TRUE,37,"left","congruent","down","double","Reading"
"10","1",18,538,538,TRUE,0,538,TRUE,37,"left","neutral","up","center","Reading"
"10","1",19,529,529,TRUE,0,529,TRUE,37,"left","neutral","up","double","Reading"
"10","1",20,571,571,TRUE,0,571,TRUE,39,"right","congruent","down","nocue","Reading"
"10","1",21,610,610,TRUE,0,610,TRUE,39,"right","incongruent","down","center","Reading"
"10","1",22,533,533,TRUE,0,533,TRUE,39,"right","congruent","down","double","Reading"
"10","1",23,511,511,TRUE,0,511,TRUE,39,"right","neutral","up","spatial","Reading"
"10","1",24,519,519,TRUE,0,519,TRUE,37,"left","neutral","down","center","Reading"
"10","1",25,413,413,TRUE,0,413,TRUE,39,"right","congruent","up","center","Reading"
"10","1",26,492,492,TRUE,0,492,TRUE,37,"left","incongruent","down","double","Reading"
"10","1",27,634,634,TRUE,0,634,TRUE,39,"right","neutral","down","nocue","Reading"
"10","1",28,524,524,TRUE,0,524,TRUE,37,"left","congruent","down","nocue","Reading"
"10","1",29,647,647,TRUE,0,647,TRUE,39,"right","neutral","down","double","Reading"
"10","1",30,706,706,TRUE,0,706,TRUE,39,"right","incongruent","down","double","Reading"
"10","1",31,580,580,TRUE,0,580,TRUE,39,"right","neutral","up","center","Reading"
"10","1",32,441,441,TRUE,0,441,TRUE,37,"left","congruent","down","center","Reading"
"10","1",33,705,705,TRUE,0,705,TRUE,37,"left","incongruent","up","spatial","Reading"
"10","1",34,643,643,TRUE,0,643,TRUE,37,"left","incongruent","up","nocue","Reading"
"10","1",35,552,552,TRUE,0,552,TRUE,39,"right","incongruent","up","center","Reading"
"10","1",36,628,628,TRUE,0,628,TRUE,39,"right","neutral","up","double","Reading"
"10","1",37,505,505,TRUE,0,505,TRUE,39,"right","congruent","down","center","Reading"
"10","1",38,556,556,TRUE,0,556,TRUE,37,"left","congruent","up","center","Reading"
"10","1",39,554,554,TRUE,0,554,TRUE,37,"left","congruent","up","nocue","Reading"
"10","1",40,683,683,TRUE,0,683,TRUE,39,"right","congruent","up","nocue","Reading"
"10","1",41,390,390,TRUE,0,390,TRUE,37,"left","congruent","down","spatial","Reading"
"10","1",42,458,458,TRUE,0,458,TRUE,39,"right","incongruent","up","nocue","Reading"
"10","1",43,502,502,TRUE,0,502,TRUE,37,"left","incongruent","down","spatial","Reading"
"10","1",44,597,597,TRUE,0,597,TRUE,39,"right","incongruent","up","double","Reading"
"10","1",45,517,517,TRUE,0,517,TRUE,37,"left","neutral","down","double","Reading"
"10","1",46,720,720,TRUE,0,720,TRUE,37,"left","neutral","up","nocue","Reading"
"10","1",47,469,469,TRUE,0,469,TRUE,39,"right","neutral","down","center","Reading"
"10","1",48,521,521,TRUE,0,521,TRUE,37,"left","congruent","up","double","Reading"
"10","1",49,613,613,TRUE,0,613,TRUE,39,"right","neutral","up","nocue","Reading"
"10","1",50,404,404,TRUE,0,404,TRUE,37,"left","neutral","down","nocue","Reading"
"10","1",51,607,607,TRUE,0,607,TRUE,37,"left","incongruent","down","nocue","Reading"
"10","1",52,627,627,TRUE,0,627,TRUE,39,"right","congruent","down","nocue","Reading"
"10","1",53,644,644,TRUE,0,644,TRUE,39,"right","incongruent","up","nocue","Reading"
"10","1",54,456,456,TRUE,0,456,TRUE,39,"right","congruent","down","spatial","Reading"
"10","1",55,528,528,TRUE,0,528,TRUE,39,"right","neutral","down","spatial","Reading"
"10","1",56,537,537,TRUE,0,537,TRUE,37,"left","congruent","down","center","Reading"
"10","1",57,478,478,TRUE,0,478,TRUE,37,"left","incongruent","up","double","Reading"
"10","1",58,444,444,TRUE,0,444,TRUE,39,"right","congruent","up","spatial","Reading"
"10","1",59,586,586,TRUE,0,586,TRUE,37,"left","neutral","up","nocue","Reading"
"10","1",60,541,541,TRUE,0,541,TRUE,37,"left","neutral","up","double","Reading"
"10","1",61,640,640,TRUE,0,640,TRUE,37,"left","incongruent","down","double","Reading"
"10","1",62,523,523,TRUE,0,523,TRUE,39,"right","neutral","up","center","Reading"
"10","1",63,697,697,TRUE,0,697,TRUE,37,"left","congruent","up","nocue","Reading"
"10","1",64,490,490,TRUE,0,490,TRUE,37,"left","congruent","down","nocue","Reading"
"10","1",65,447,447,TRUE,0,447,TRUE,39,"right","neutral","up","spatial","Reading"
"10","1",66,560,560,TRUE,0,560,TRUE,37,"left","neutral","up","center","Reading"
"10","1",67,481,481,TRUE,0,481,TRUE,39,"right","congruent","up","double","Reading"
"10","1",68,598,598,TRUE,0,598,TRUE,37,"left","incongruent","down","spatial","Reading"
"10","1",69,456,456,TRUE,0,456,TRUE,37,"left","congruent","up","double","Reading"
"10","1",70,537,537,TRUE,0,537,TRUE,39,"right","congruent","up","center","Reading"
"10","1",71,511,511,TRUE,0,511,TRUE,37,"left","neutral","down","center","Reading"
"10","1",72,564,564,TRUE,0,564,TRUE,39,"right","incongruent","up","center","Reading"
"10","1",73,504,504,TRUE,0,504,TRUE,37,"left","incongruent","up","center","Reading"
"10","1",74,658,658,TRUE,0,658,TRUE,39,"right","incongruent","down","center","Reading"
"10","1",75,679,679,TRUE,0,679,TRUE,39,"right","incongruent","up","spatial","Reading"
"10","1",76,631,631,TRUE,0,631,TRUE,39,"right","incongruent","down","nocue","Reading"
"10","1",77,582,582,TRUE,0,582,TRUE,37,"left","incongruent","up","nocue","Reading"
"10","1",78,705,705,TRUE,0,705,TRUE,39,"right","incongruent","down","double","Reading"
"10","1",79,585,585,TRUE,0,585,TRUE,37,"left","neutral","down","spatial","Reading"
"10","1",80,427,427,TRUE,0,427,TRUE,37,"left","congruent","up","spatial","Reading"
"10","1",81,564,564,TRUE,0,564,TRUE,37,"left","congruent","up","center","Reading"
"10","1",82,388,388,TRUE,0,388,TRUE,37,"left","congruent","down","spatial","Reading"
"10","1",83,815,815,TRUE,0,815,TRUE,39,"right","incongruent","down","spatial","Reading"
"10","1",84,585,585,TRUE,0,585,TRUE,39,"right","neutral","down","center","Reading"
"10","1",85,354,354,TRUE,0,354,TRUE,37,"left","neutral","up","spatial","Reading"
"10","1",86,586,586,TRUE,0,586,TRUE,39,"right","incongruent","up","double","Reading"
"10","1",87,481,481,TRUE,0,481,TRUE,39,"right","neutral","up","double","Reading"
"10","1",88,703,703,TRUE,0,703,TRUE,37,"left","incongruent","down","center","Reading"
"10","1",89,463,463,TRUE,0,463,TRUE,37,"left","incongruent","up","spatial","Reading"
"10","1",90,616,616,TRUE,0,616,TRUE,37,"left","congruent","down","double","Reading"
"10","1",91,552,552,TRUE,0,552,TRUE,37,"left","neutral","down","double","Reading"
"10","1",93,543,543,TRUE,0,543,TRUE,39,"right","congruent","down","center","Reading"
"10","1",94,520,520,TRUE,0,520,TRUE,39,"right","neutral","down","double","Reading"
"10","1",95,606,606,TRUE,0,606,TRUE,39,"right","congruent","down","double","Reading"
"10","1",96,725,725,TRUE,0,725,TRUE,39,"right","neutral","down","nocue","Reading"
"10","1",97,741,741,TRUE,0,741,TRUE,37,"left","neutral","down","double","Reading"
"10","1",98,581,581,TRUE,0,581,TRUE,37,"left","neutral","down","nocue","Reading"
"10","1",99,595,595,TRUE,0,595,TRUE,39,"right","neutral","down","double","Reading"
"10","1",100,545,545,TRUE,0,545,TRUE,37,"left","incongruent","down","double","Reading"
"10","1",101,656,656,TRUE,0,656,TRUE,39,"right","incongruent","up","nocue","Reading"
"10","1",102,478,478,TRUE,0,478,TRUE,37,"left","congruent","up","spatial","Reading"
"10","1",103,384,384,TRUE,0,384,TRUE,37,"left","neutral","down","spatial","Reading"
"10","1",104,457,457,TRUE,0,457,TRUE,37,"left","incongruent","up","spatial","Reading"
"10","1",105,581,581,TRUE,0,581,TRUE,37,"left","congruent","down","center","Reading"
"10","1",106,570,570,TRUE,0,570,TRUE,39,"right","neutral","up","center","Reading"
"10","1",107,641,641,TRUE,0,641,TRUE,37,"left","incongruent","up","center","Reading"
"10","1",108,594,594,TRUE,0,594,TRUE,37,"left","incongruent","down","nocue","Reading"
"10","1",109,536,536,TRUE,0,536,TRUE,39,"right","incongruent","down","spatial","Reading"
"10","1",110,473,473,TRUE,0,473,TRUE,37,"left","neutral","up","center","Reading"
"10","1",111,569,569,TRUE,0,569,TRUE,39,"right","incongruent","up","double","Reading"
"10","1",112,487,487,TRUE,0,487,TRUE,37,"left","incongruent","up","double","Reading"
"10","1",113,485,485,TRUE,0,485,TRUE,37,"left","neutral","down","center","Reading"
"10","1",114,390,390,TRUE,0,390,TRUE,39,"right","congruent","up","spatial","Reading"
"10","1",115,528,528,TRUE,0,528,TRUE,39,"right","neutral","up","nocue","Reading"
"10","1",116,561,561,TRUE,0,561,TRUE,37,"left","incongruent","down","center","Reading"
