"p","t","trial_num","rt","block_duration","full_screen","focus_shifts","stim_duration","correct","correct_response","flanker_middle_direction","flanker_type","flanker_location","cue","group"
"1","1",1,613,613,TRUE,0,613,TRUE,37,"left","congruent","down","center","FAM"
"1","1",2,602,602,TRUE,0,602,TRUE,37,"left","neutral","down","double","FAM"
"1","1",3,520,520,TRUE,0,520,TRUE,37,"left","incongruent","down","spatial","FAM"
"1","1",4,661,661,TRUE,0,661,TRUE,37,"left","incongruent","up","double","FAM"
"1","1",5,705,705,TRUE,0,705,TRUE,37,"left","incongruent","up","nocue","FAM"
"1","1",6,650,650,TRUE,0,650,TRUE,39,"right","congruent","up","spatial","FAM"
"1","1",7,791,791,TRUE,0,791,TRUE,37,"left","congruent","down","double","FAM"
"1","1",8,758,758,TRUE,0,758,TRUE,39,"right","neutral","up","nocue","FAM"
"1","1",9,640,640,TRUE,0,640,TRUE,39,"right","neutral","up","double","FAM"
"1","1",10,543,543,TRUE,0,543,TRUE,37,"left","neutral","down","spatial","FAM"
"1","1",11,707,707,TRUE,0,707,TRUE,39,"right","incongruent","down","center","FAM"
"1","1",12,614,614,TRUE,0,614,TRUE,37,"left","congruent","up","center","FAM"
"1","1",13,571,571,TRUE,0,571,TRUE,37,"left","incongruent","up","spatial","FAM"
"1","1",14,459,459,TRUE,0,459,TRUE,37,"left","neutral","up","spatial","FAM"
"1","1",15,674,674,TRUE,0,674,TRUE,39,"right","incongruent","up","center","FAM"
"1","1",16,651,651,TRUE,0,651,TRUE,37,"left","congruent","down","spatial","FAM"
"1","1",17,801,801,TRUE,0,801,TRUE,37,"left","incongruent","down","center","FAM"
"1","1",18,616,616,TRUE,0,616,TRUE,37,"left","incongruent","up","center","FAM"
"1","1",19,698,698,TRUE,0,698,TRUE,37,"left","neutral","up","nocue","FAM"
"1","1",20,636,636,TRUE,0,636,TRUE,39,"right","congruent","up","double","FAM"
"1","1",21,649,649,TRUE,0,649,TRUE,39,"right","congruent","up","center","FAM"
"1","1",22,684,684,TRUE,0,684,TRUE,39,"right","congruent","down","spatial","FAM"
"1","1",23,507,507,TRUE,0,507,TRUE,39,"right","neutral","down","spatial","FAM"
"1","1",24,625,625,TRUE,0,625,TRUE,39,"right","congruent","down","center","FAM"
"1","1",25,485,485,TRUE,0,485,TRUE,39,"right","incongruent","up","spatial","FAM"
"1","1",26,707,707,TRUE,0,707,TRUE,37,"left","congruent","up","nocue","FAM"
"1","1",27,780,780,TRUE,0,780,TRUE,37,"left","incongruent","down","nocue","FAM"
"1","1",28,774,774,TRUE,0,774,TRUE,39,"right","incongruent","down","double","FAM"
"1","1",29,668,668,TRUE,0,668,TRUE,39,"right","congruent","up","nocue","FAM"
"1","1",30,686,686,TRUE,0,686,TRUE,39,"right","congruent","down","double","FAM"
"1","1",31,672,672,TRUE,0,672,TRUE,39,"right","congruent","down","nocue","FAM"
"1","1",32,698,698,TRUE,0,698,TRUE,37,"left","congruent","up","double","FAM"
"1","1",33,726,726,TRUE,0,726,TRUE,37,"left","congruent","down","nocue","FAM"
"1","1",35,937,937,TRUE,0,937,TRUE,37,"left","incongruent","down","double","FAM"
"1","1",36,883,883,TRUE,0,883,TRUE,37,"left","neutral","down","nocue","FAM"
"1","1",37,663,663,TRUE,0,663,TRUE,39,"right","neutral","down","double","FAM"
"1","1",38,818,818,TRUE,0,818,TRUE,39,"right","incongruent","up","nocue","FAM"
"1","1",39,640,640,TRUE,0,640,TRUE,39,"right","incongruent","up","double","FAM"
"1","1",40,665,665,TRUE,0,665,TRUE,39,"right","neutral","down","center","FAM"
"1","1",41,773,773,TRUE,0,773,TRUE,37,"left","neutral","up","double","FAM"
"1","1",42,673,673,TRUE,0,673,TRUE,37,"left","neutral","down","center","FAM"
"1","1",43,671,671,TRUE,0,671,TRUE,37,"left","congruent","up","spatial","FAM"
"1","1",44,813,813,TRUE,0,813,TRUE,39,"right","neutral","up","center","FAM"
"1","1",45,606,606,TRUE,0,606,TRUE,37,"left","neutral","up","center","FAM"
"1","1",46,658,658,TRUE,0,658,TRUE,39,"right","neutral","down","nocue","FAM"
"1","1",47,657,657,TRUE,0,657,TRUE,39,"right","neutral","up","spatial","FAM"
"1","1",48,584,584,TRUE,0,584,TRUE,39,"right","incongruent","down","spatial","FAM"
"1","1",49,869,869,TRUE,0,869,TRUE,37,"left","incongruent","up","double","FAM"
"1","1",50,641,641,TRUE,0,641,TRUE,39,"right","incongruent","up","double","FAM"
"1","1",51,676,676,TRUE,0,676,TRUE,39,"right","incongruent","down","spatial","FAM"
"1","1",52,603,603,TRUE,0,603,TRUE,39,"right","neutral","up","spatial","FAM"
"1","1",53,454,454,TRUE,0,454,TRUE,39,"right","congruent","up","spatial","FAM"
"1","1",54,639,639,TRUE,0,639,TRUE,39,"right","congruent","up","nocue","FAM"
"1","1",55,513,513,TRUE,0,513,TRUE,39,"right","neutral","down","spatial","FAM"
"1","1",56,698,698,TRUE,0,698,TRUE,39,"right","incongruent","up","nocue","FAM"
"1","1",57,680,680,TRUE,0,680,TRUE,37,"left","neutral","down","center","FAM"
"1","1",58,627,627,TRUE,0,627,TRUE,39,"right","congruent","down","nocue","FAM"
"1","1",59,482,482,TRUE,0,482,TRUE,39,"right","congruent","down","double","FAM"
"1","1",60,543,543,TRUE,0,543,TRUE,37,"left","neutral","down","spatial","FAM"
"1","1",61,746,746,TRUE,0,746,TRUE,37,"left","congruent","down","nocue","FAM"
"1","1",62,619,619,TRUE,0,619,TRUE,39,"right","neutral","up","center","FAM"
"1","1",63,638,638,TRUE,0,638,TRUE,39,"right","congruent","down","center","FAM"
"1","1",64,525,525,TRUE,0,525,TRUE,37,"left","congruent","up","spatial","FAM"
"1","1",65,532,532,TRUE,0,532,TRUE,39,"right","neutral","up","nocue","FAM"
"1","1",66,782,782,TRUE,0,782,TRUE,37,"left","incongruent","up","nocue","FAM"
"1","1",67,620,620,TRUE,0,620,TRUE,37,"left","congruent","up","nocue","FAM"
"1","1",68,568,568,TRUE,0,568,TRUE,37,"left","neutral","up","nocue","FAM"
"1","1",69,569,569,TRUE,0,569,TRUE,37,"left","incongruent","up","spatial","FAM"
"1","1",70,893,893,TRUE,0,893,TRUE,39,"right","incongruent","down","center","FAM"
"1","1",71,639,639,TRUE,0,639,TRUE,39,"right","neutral","down","center","FAM"
"1","1",72,508,508,TRUE,0,508,TRUE,37,"left","neutral","up","spatial","FAM"
"1","1",73,669,669,TRUE,0,669,TRUE,37,"left","congruent","down","double","FAM"
"1","1",74,631,631,TRUE,0,631,TRUE,37,"left","neutral","up","double","FAM"
"1","1",76,687,687,TRUE,0,687,TRUE,37,"left","incongruent","down","double","FAM"
"1","1",77,614,614,TRUE,0,614,TRUE,39,"right","congruent","up","double","FAM"
"1","1",78,533,533,TRUE,0,533,TRUE,37,"left","congruent","down","spatial","FAM"
"1","1",79,648,648,TRUE,0,648,TRUE,37,"left","congruent","up","double","FAM"
"1","1",80,729,729,TRUE,0,729,TRUE,37,"left","neutral","down","nocue","FAM"
"1","1",81,756,756,TRUE,0,756,TRUE,37,"left","incongruent","down","spatial","FAM"
"1","1",82,718,718,TRUE,0,718,TRUE,37,"left","congruent","up","center","FAM"
"1","1",83,523,523,TRUE,0,523,TRUE,39,"right","neutral","up","double","FAM"
"1","1",84,509,509,TRUE,0,509,TRUE,39,"right","congruent","down","spatial","FAM"
"1","1",85,656,656,TRUE,0,656,TRUE,37,"left","congruent","down","center","FAM"
"1","1",86,933,933,TRUE,0,933,TRUE,37,"left","incongruent","down","nocue","FAM"
"1","1",87,577,577,TRUE,0,577,TRUE,37,"left","neutral","up","center","FAM"
"1","1",88,675,675,TRUE,0,675,TRUE,37,"left","incongruent","up","center","FAM"
"1","1",90,635,635,TRUE,0,635,TRUE,39,"right","incongruent","up","center","FAM"
"1","1",91,745,745,TRUE,0,745,TRUE,37,"left","neutral","down","double","FAM"
"1","1",92,567,567,TRUE,0,567,TRUE,39,"right","incongruent","up","spatial","FAM"
"1","1",93,754,754,TRUE,0,754,TRUE,39,"right","neutral","down","nocue","FAM"
"1","1",94,772,772,TRUE,0,772,TRUE,39,"right","incongruent","down","double","FAM"
"1","1",95,807,807,TRUE,0,807,TRUE,37,"left","incongruent","down","center","FAM"
"1","1",96,655,655,TRUE,0,655,TRUE,39,"right","neutral","down","double","FAM"
"1","1",97,722,722,TRUE,0,722,TRUE,37,"left","neutral","down","nocue","FAM"
"1","1",98,720,720,TRUE,0,720,TRUE,39,"right","incongruent","down","nocue","FAM"
"1","1",99,538,538,TRUE,0,538,TRUE,39,"right","neutral","up","double","FAM"
"1","1",100,722,722,TRUE,0,722,TRUE,37,"left","incongruent","down","center","FAM"
"1","1",101,628,628,TRUE,0,628,TRUE,37,"left","incongruent","up","center","FAM"
"1","1",102,484,484,TRUE,0,484,TRUE,37,"left","neutral","up","spatial","FAM"
"1","1",103,799,799,TRUE,0,799,TRUE,39,"right","incongruent","up","center","FAM"
"1","1",104,758,758,TRUE,0,758,TRUE,37,"left","incongruent","down","double","FAM"
"1","1",105,839,839,TRUE,0,839,TRUE,37,"left","incongruent","down","nocue","FAM"
"1","1",106,607,607,TRUE,0,607,TRUE,37,"left","congruent","up","double","FAM"
"1","1",107,676,676,TRUE,0,676,TRUE,37,"left","congruent","up","spatial","FAM"
"1","1",108,758,758,TRUE,0,758,TRUE,39,"right","incongruent","up","spatial","FAM"
"1","1",109,704,704,TRUE,0,704,TRUE,37,"left","neutral","up","nocue","FAM"
"1","1",110,710,710,TRUE,0,710,TRUE,37,"left","congruent","down","center","FAM"
"1","1",111,679,679,TRUE,0,679,TRUE,39,"right","incongruent","down","spatial","FAM"
"1","1",112,708,708,TRUE,0,708,TRUE,37,"left","incongruent","up","nocue","FAM"
"1","1",113,560,560,TRUE,0,560,TRUE,37,"left","incongruent","down","spatial","FAM"
"1","1",114,492,492,TRUE,0,492,TRUE,37,"left","incongruent","up","spatial","FAM"
"1","1",115,572,572,TRUE,0,572,TRUE,39,"right","congruent","up","center","FAM"
"1","1",116,647,647,TRUE,0,647,TRUE,39,"right","incongruent","up","double","FAM"
"1","1",117,626,626,TRUE,0,626,TRUE,39,"right","neutral","up","center","FAM"
"1","1",118,644,644,TRUE,0,644,TRUE,39,"right","congruent","up","nocue","FAM"
"1","1",119,685,685,TRUE,0,685,TRUE,39,"right","neutral","down","double","FAM"
"1","1",120,813,813,TRUE,0,813,TRUE,37,"left","neutral","down","double","FAM"
"1","1",121,556,556,TRUE,0,556,TRUE,37,"left","neutral","up","center","FAM"
"1","1",122,725,725,TRUE,0,725,TRUE,39,"right","neutral","down","center","FAM"
"1","1",123,698,698,TRUE,0,698,TRUE,39,"right","neutral","down","nocue","FAM"
"1","1",124,629,629,TRUE,0,629,TRUE,39,"right","congruent","down","center","FAM"
"1","1",125,727,727,TRUE,0,727,TRUE,37,"left","congruent","down","nocue","FAM"
"1","1",126,594,594,TRUE,0,594,TRUE,37,"left","congruent","down","spatial","FAM"
"1","1",127,671,671,TRUE,0,671,TRUE,39,"right","congruent","down","double","FAM"
"1","1",128,765,765,TRUE,0,765,TRUE,39,"right","congruent","up","double","FAM"
"1","1",129,488,488,TRUE,0,488,TRUE,39,"right","congruent","down","spatial","FAM"
"1","1",130,827,827,TRUE,0,827,TRUE,39,"right","incongruent","down","double","FAM"
"1","1",131,583,583,TRUE,0,583,TRUE,39,"right","neutral","up","spatial","FAM"
"1","1",132,671,671,TRUE,0,671,TRUE,39,"right","incongruent","up","nocue","FAM"
"1","1",133,575,575,TRUE,0,575,TRUE,39,"right","congruent","down","nocue","FAM"
"1","1",134,748,748,TRUE,0,748,TRUE,39,"right","incongruent","down","center","FAM"
"1","1",135,519,519,TRUE,0,519,TRUE,39,"right","congruent","up","spatial","FAM"
"1","1",136,815,815,TRUE,0,815,TRUE,37,"left","congruent","up","nocue","FAM"
"1","1",137,672,672,TRUE,0,672,TRUE,37,"left","neutral","down","center","FAM"
"1","1",138,766,766,TRUE,0,766,TRUE,39,"right","neutral","down","spatial","FAM"
"1","1",139,743,743,TRUE,0,743,TRUE,37,"left","congruent","up","center","FAM"
"1","1",140,541,541,TRUE,0,541,TRUE,37,"left","neutral","down","spatial","FAM"
"1","1",141,599,599,TRUE,0,599,TRUE,37,"left","incongruent","up","double","FAM"
"1","1",142,800,800,TRUE,0,800,TRUE,39,"right","neutral","up","nocue","FAM"
"1","1",143,557,557,TRUE,0,557,TRUE,37,"left","congruent","down","double","FAM"
"1","1",144,627,627,TRUE,0,627,TRUE,37,"left","neutral","up","double","FAM"
"1","2",1,711,711,TRUE,0,711,TRUE,37,"left","incongruent","up","spatial","FAM"
"1","2",2,463,463,TRUE,0,463,TRUE,39,"right","congruent","up","spatial","FAM"
"1","2",3,650,650,TRUE,0,650,TRUE,39,"right","neutral","down","double","FAM"
"1","2",4,534,534,TRUE,0,534,TRUE,39,"right","congruent","down","center","FAM"
"1","2",5,589,589,TRUE,0,589,TRUE,39,"right","neutral","up","center","FAM"
"1","2",6,468,468,TRUE,0,468,TRUE,37,"left","neutral","up","center","FAM"
"1","2",7,618,618,TRUE,0,618,TRUE,39,"right","congruent","up","center","FAM"
"1","2",8,746,746,TRUE,0,746,TRUE,39,"right","incongruent","down","center","FAM"
"1","2",9,523,523,TRUE,0,523,TRUE,37,"left","congruent","down","spatial","FAM"
"1","2",10,615,615,TRUE,0,615,TRUE,39,"right","neutral","up","double","FAM"
"1","2",11,778,778,TRUE,0,778,TRUE,39,"right","incongruent","down","double","FAM"
"1","2",12,675,675,TRUE,0,675,TRUE,39,"right","neutral","down","center","FAM"
"1","2",13,571,571,TRUE,0,571,TRUE,39,"right","incongruent","up","spatial","FAM"
"1","2",14,606,606,TRUE,0,606,TRUE,37,"left","congruent","up","double","FAM"
"1","2",15,633,633,TRUE,0,633,TRUE,37,"left","congruent","down","double","FAM"
"1","2",16,649,649,TRUE,0,649,TRUE,37,"left","congruent","up","center","FAM"
"1","2",17,733,733,TRUE,0,733,TRUE,37,"left","incongruent","down","center","FAM"
"1","2",18,663,663,TRUE,0,663,TRUE,37,"left","congruent","up","nocue","FAM"
"1","2",19,472,472,TRUE,0,472,TRUE,39,"right","neutral","up","spatial","FAM"
"1","2",20,780,780,TRUE,0,780,TRUE,37,"left","neutral","down","nocue","FAM"
"1","2",21,417,417,TRUE,0,417,TRUE,37,"left","congruent","up","spatial","FAM"
"1","2",22,465,465,TRUE,0,465,TRUE,37,"left","neutral","up","double","FAM"
"1","2",23,607,607,TRUE,0,607,TRUE,39,"right","congruent","down","nocue","FAM"
"1","2",24,630,630,TRUE,0,630,TRUE,37,"left","incongruent","down","double","FAM"
"1","2",25,516,516,TRUE,0,516,TRUE,39,"right","congruent","up","nocue","FAM"
"1","2",26,514,514,TRUE,0,514,TRUE,39,"right","neutral","down","spatial","FAM"
"1","2",27,906,906,TRUE,0,906,TRUE,39,"right","incongruent","down","nocue","FAM"
"1","2",28,512,512,TRUE,0,512,TRUE,39,"right","incongruent","up","double","FAM"
"1","2",29,649,649,TRUE,0,649,TRUE,37,"left","neutral","down","double","FAM"
"1","2",30,499,499,TRUE,0,499,TRUE,37,"left","neutral","down","spatial","FAM"
"1","2",31,642,642,TRUE,0,642,TRUE,39,"right","congruent","down","double","FAM"
"1","2",32,614,614,TRUE,0,614,TRUE,37,"left","incongruent","up","double","FAM"
"1","2",33,504,504,TRUE,0,504,TRUE,39,"right","congruent","down","spatial","FAM"
"1","2",34,550,550,TRUE,0,550,TRUE,37,"left","neutral","up","spatial","FAM"
"1","2",35,729,729,TRUE,0,729,TRUE,37,"left","incongruent","up","nocue","FAM"
"1","2",36,686,686,TRUE,0,686,TRUE,39,"right","neutral","up","nocue","FAM"
"1","2",37,909,909,TRUE,0,909,TRUE,39,"right","incongruent","up","nocue","FAM"
"1","2",38,682,682,TRUE,0,682,TRUE,37,"left","congruent","down","nocue","FAM"
"1","2",39,626,626,TRUE,0,626,TRUE,39,"right","incongruent","up","center","FAM"
"1","2",40,531,531,TRUE,0,531,TRUE,37,"left","congruent","down","center","FAM"
"1","2",41,482,482,TRUE,0,482,TRUE,37,"left","incongruent","down","spatial","FAM"
"1","2",42,439,439,TRUE,0,439,TRUE,39,"right","incongruent","down","spatial","FAM"
"1","2",43,488,488,TRUE,0,488,TRUE,39,"right","congruent","up","double","FAM"
"1","2",44,599,599,TRUE,0,599,TRUE,39,"right","neutral","down","nocue","FAM"
"1","2",45,633,633,TRUE,0,633,TRUE,37,"left","incongruent","down","nocue","FAM"
"1","2",46,606,606,TRUE,0,606,TRUE,37,"left","incongruent","up","center","FAM"
"1","2",47,653,653,TRUE,0,653,TRUE,37,"left","neutral","down","center","FAM"
"1","2",48,605,605,TRUE,0,605,TRUE,37,"left","neutral","up","nocue","FAM"
"1","2",49,651,651,TRUE,0,651,TRUE,39,"right","congruent","up","nocue","FAM"
"1","2",50,563,563,TRUE,0,563,TRUE,39,"right","incongruent","up","spatial","FAM"
"1","2",51,698,698,TRUE,0,698,TRUE,39,"right","incongruent","down","double","FAM"
"1","2",52,491,491,TRUE,0,491,TRUE,37,"left","neutral","down","spatial","FAM"
"1","2",53,663,663,TRUE,0,663,TRUE,37,"left","incongruent","down","nocue","FAM"
"1","2",54,750,750,TRUE,0,750,TRUE,39,"right","congruent","down","double","FAM"
"1","2",55,628,628,TRUE,0,628,TRUE,39,"right","congruent","down","center","FAM"
"1","2",56,551,551,TRUE,0,551,TRUE,39,"right","neutral","up","center","FAM"
"1","2",57,691,691,TRUE,0,691,TRUE,39,"right","incongruent","up","center","FAM"
"1","2",58,507,507,TRUE,0,507,TRUE,39,"right","incongruent","down","spatial","FAM"
"1","2",59,487,487,TRUE,0,487,TRUE,39,"right","congruent","up","double","FAM"
"1","2",60,524,524,TRUE,0,524,TRUE,37,"left","incongruent","up","spatial","FAM"
"1","2",61,437,437,TRUE,0,437,TRUE,39,"right","congruent","down","spatial","FAM"
"1","2",62,642,642,TRUE,0,642,TRUE,37,"left","congruent","down","nocue","FAM"
"1","2",63,645,645,TRUE,0,645,TRUE,39,"right","incongruent","down","center","FAM"
"1","2",64,613,613,TRUE,0,613,TRUE,39,"right","neutral","down","nocue","FAM"
"1","2",65,623,623,TRUE,0,623,TRUE,39,"right","neutral","up","nocue","FAM"
"1","2",66,693,693,TRUE,0,693,TRUE,37,"left","neutral","down","nocue","FAM"
"1","2",67,728,728,TRUE,0,728,TRUE,37,"left","incongruent","down","double","FAM"
"1","2",68,523,523,TRUE,0,523,TRUE,37,"left","neutral","down","center","FAM"
"1","2",69,502,502,TRUE,0,502,TRUE,39,"right","congruent","down","nocue","FAM"
"1","2",70,378,378,TRUE,0,378,TRUE,37,"left","neutral","up","spatial","FAM"
"1","2",71,609,609,TRUE,0,609,TRUE,37,"left","congruent","up","double","FAM"
"1","2",72,596,596,TRUE,0,596,TRUE,37,"left","neutral","up","double","FAM"
"1","2",73,614,614,TRUE,0,614,TRUE,39,"right","congruent","up","center","FAM"
"1","2",74,617,617,TRUE,0,617,TRUE,39,"right","incongruent","up","double","FAM"
"1","2",75,522,522,TRUE,0,522,TRUE,39,"right","neutral","down","spatial","FAM"
"1","2",76,576,576,TRUE,0,576,TRUE,37,"left","congruent","up","center","FAM"
"1","2",77,423,423,TRUE,0,423,TRUE,39,"right","neutral","up","double","FAM"
"1","2",78,437,437,TRUE,0,437,TRUE,37,"left","incongruent","up","double","FAM"
"1","2",79,466,466,TRUE,0,466,TRUE,37,"left","congruent","down","spatial","FAM"
"1","2",80,750,750,TRUE,0,750,TRUE,37,"left","congruent","down","center","FAM"
"1","2",81,400,400,TRUE,0,400,TRUE,39,"right","neutral","up","spatial","FAM"
"1","2",82,868,868,TRUE,0,868,TRUE,39,"right","incongruent","down","nocue","FAM"
"1","2",83,431,431,TRUE,0,431,TRUE,37,"left","congruent","up","spatial","FAM"
"1","2",84,647,647,TRUE,0,647,TRUE,37,"left","congruent","up","nocue","FAM"
"1","2",85,481,481,TRUE,0,481,TRUE,37,"left","incongruent","down","spatial","FAM"
"1","2",86,447,447,TRUE,0,447,TRUE,39,"right","congruent","up","spatial","FAM"
"1","2",87,490,490,TRUE,0,490,TRUE,37,"left","incongruent","up","center","FAM"
"1","2",88,666,666,TRUE,0,666,TRUE,39,"right","neutral","down","center","FAM"
"1","2",89,601,601,TRUE,0,601,TRUE,37,"left","neutral","down","double","FAM"
"1","2",90,554,554,TRUE,0,554,TRUE,37,"left","neutral","up","nocue","FAM"
"1","2",91,559,559,TRUE,0,559,TRUE,37,"left","congruent","down","double","FAM"
"1","2",92,591,591,TRUE,0,591,TRUE,39,"right","neutral","down","double","FAM"
"1","2",93,707,707,TRUE,0,707,TRUE,37,"left","incongruent","up","nocue","FAM"
"1","2",94,608,608,TRUE,0,608,TRUE,37,"left","incongruent","down","center","FAM"
"1","2",95,582,582,TRUE,0,582,TRUE,37,"left","neutral","up","center","FAM"
"1","2",96,694,694,TRUE,0,694,TRUE,39,"right","incongruent","up","nocue","FAM"
"1","2",97,707,707,TRUE,0,707,TRUE,37,"left","incongruent","down","center","FAM"
"1","2",98,475,475,TRUE,0,475,TRUE,37,"left","neutral","up","double","FAM"
"1","2",99,535,535,TRUE,0,535,TRUE,37,"left","congruent","down","center","FAM"
"1","2",100,507,507,TRUE,0,507,TRUE,39,"right","neutral","up","center","FAM"
"1","2",101,507,507,TRUE,0,507,TRUE,37,"left","neutral","up","nocue","FAM"
"1","2",102,459,459,TRUE,0,459,TRUE,39,"right","congruent","up","center","FAM"
"1","2",103,615,615,TRUE,0,615,TRUE,39,"right","incongruent","up","nocue","FAM"
"1","2",104,731,731,TRUE,0,731,TRUE,37,"left","incongruent","up","center","FAM"
"1","2",105,672,672,TRUE,0,672,TRUE,39,"right","incongruent","down","double","FAM"
"1","2",106,661,661,TRUE,0,661,TRUE,37,"left","incongruent","up","nocue","FAM"
"1","2",107,863,863,TRUE,0,863,TRUE,39,"right","congruent","down","nocue","FAM"
"1","2",108,672,672,TRUE,0,672,TRUE,39,"right","incongruent","up","center","FAM"
"1","2",109,680,680,TRUE,0,680,TRUE,39,"right","congruent","down","double","FAM"
"1","2",110,434,434,TRUE,0,434,TRUE,39,"right","incongruent","up","spatial","FAM"
"1","2",111,727,727,TRUE,0,727,TRUE,37,"left","neutral","down","double","FAM"
"1","2",112,495,495,TRUE,0,495,TRUE,39,"right","incongruent","up","double","FAM"
"1","2",113,770,770,TRUE,0,770,TRUE,37,"left","incongruent","down","nocue","FAM"
"1","2",114,403,403,TRUE,0,403,TRUE,39,"right","neutral","up","spatial","FAM"
"1","2",115,439,439,TRUE,0,439,TRUE,37,"left","neutral","up","spatial","FAM"
"1","2",116,723,723,TRUE,0,723,TRUE,39,"right","neutral","down","nocue","FAM"
"1","2",117,575,575,TRUE,0,575,TRUE,39,"right","congruent","down","spatial","FAM"
"1","2",118,658,658,TRUE,0,658,TRUE,37,"left","neutral","down","nocue","FAM"
"1","2",119,515,515,TRUE,0,515,TRUE,37,"left","congruent","up","spatial","FAM"
"1","2",120,450,450,TRUE,0,450,TRUE,37,"left","incongruent","up","spatial","FAM"
"1","2",121,416,416,TRUE,0,416,TRUE,37,"left","congruent","down","spatial","FAM"
"1","2",122,519,519,TRUE,0,519,TRUE,37,"left","incongruent","up","double","FAM"
"1","2",123,636,636,TRUE,0,636,TRUE,39,"right","neutral","down","double","FAM"
"1","2",124,605,605,TRUE,0,605,TRUE,39,"right","congruent","up","nocue","FAM"
"1","2",125,458,458,TRUE,0,458,TRUE,39,"right","incongruent","down","spatial","FAM"
"1","2",126,828,828,TRUE,0,828,TRUE,37,"left","congruent","down","nocue","FAM"
"1","2",127,823,823,TRUE,0,823,TRUE,39,"right","incongruent","down","nocue","FAM"
"1","2",128,740,740,TRUE,0,740,TRUE,39,"right","incongruent","down","center","FAM"
"1","2",129,509,509,TRUE,0,509,TRUE,37,"left","congruent","up","center","FAM"
"1","2",130,491,491,TRUE,0,491,TRUE,39,"right","neutral","down","spatial","FAM"
"1","2",131,548,548,TRUE,0,548,TRUE,37,"left","neutral","down","center","FAM"
"1","2",132,535,535,TRUE,0,535,TRUE,37,"left","incongruent","down","spatial","FAM"
"1","2",133,425,425,TRUE,0,425,TRUE,37,"left","congruent","up","double","FAM"
"1","2",134,622,622,TRUE,0,622,TRUE,39,"right","congruent","down","center","FAM"
"1","2",135,705,705,TRUE,0,705,TRUE,37,"left","congruent","up","nocue","FAM"
"1","2",136,472,472,TRUE,0,472,TRUE,37,"left","neutral","up","center","FAM"
"1","2",137,461,461,TRUE,0,461,TRUE,37,"left","congruent","down","double","FAM"
"1","2",138,492,492,TRUE,0,492,TRUE,37,"left","incongruent","down","double","FAM"
"1","2",139,791,791,TRUE,0,791,TRUE,39,"right","neutral","up","nocue","FAM"
"1","2",140,438,438,TRUE,0,438,TRUE,39,"right","congruent","up","spatial","FAM"
"1","2",141,405,405,TRUE,0,405,TRUE,39,"right","neutral","up","double","FAM"
"1","2",142,490,490,TRUE,0,490,TRUE,37,"left","neutral","down","spatial","FAM"
"1","2",143,599,599,TRUE,0,599,TRUE,39,"right","neutral","down","center","FAM"
"1","2",144,468,468,TRUE,0,468,TRUE,39,"right","congruent","up","double","FAM"
"2","1",1,892,892,TRUE,0,892,TRUE,37,"left","congruent","up","double","FAM"
"2","1",2,864,864,TRUE,0,864,TRUE,39,"right","neutral","up","double","FAM"
"2","1",3,969,969,TRUE,0,969,TRUE,37,"left","neutral","down","double","FAM"
"2","1",4,1030,1030,TRUE,0,1030,TRUE,37,"left","congruent","up","spatial","FAM"
"2","1",5,792,792,TRUE,0,792,TRUE,39,"right","neutral","up","spatial","FAM"
"2","1",6,852,852,TRUE,0,852,TRUE,39,"right","neutral","up","nocue","FAM"
"2","1",7,890,890,TRUE,0,890,TRUE,39,"right","incongruent","up","double","FAM"
"2","1",8,1087,1087,TRUE,0,1087,TRUE,39,"right","neutral","down","nocue","FAM"
"2","1",9,958,958,TRUE,0,958,TRUE,39,"right","congruent","down","center","FAM"
"2","1",10,894,894,TRUE,0,894,TRUE,37,"left","congruent","up","nocue","FAM"
"2","1",11,821,821,TRUE,0,821,TRUE,37,"left","neutral","up","center","FAM"
"2","1",12,854,854,TRUE,0,854,TRUE,39,"right","congruent","down","spatial","FAM"
"2","1",13,912,912,TRUE,0,912,TRUE,37,"left","neutral","down","nocue","FAM"
"2","1",14,1119,1119,TRUE,0,1119,TRUE,39,"right","incongruent","up","center","FAM"
"2","1",15,905,905,TRUE,0,905,TRUE,37,"left","neutral","up","nocue","FAM"
"2","1",16,805,805,TRUE,0,805,TRUE,37,"left","congruent","down","spatial","FAM"
"2","1",17,1063,1063,TRUE,0,1063,TRUE,37,"left","incongruent","up","double","FAM"
"2","1",18,1117,1117,TRUE,0,1117,TRUE,39,"right","incongruent","down","nocue","FAM"
"2","1",19,804,804,TRUE,0,804,TRUE,37,"left","incongruent","down","spatial","FAM"
"2","1",20,813,813,TRUE,0,813,TRUE,37,"left","neutral","down","spatial","FAM"
"2","1",21,974,974,TRUE,0,974,TRUE,37,"left","congruent","down","double","FAM"
"2","1",22,996,996,TRUE,0,996,TRUE,39,"right","incongruent","down","double","FAM"
"2","1",23,961,961,TRUE,0,961,TRUE,39,"right","neutral","up","center","FAM"
"2","1",24,956,956,TRUE,0,956,TRUE,37,"left","incongruent","up","nocue","FAM"
"2","1",25,946,946,TRUE,0,946,TRUE,39,"right","neutral","down","center","FAM"
"2","1",26,904,904,TRUE,0,904,TRUE,37,"left","congruent","down","nocue","FAM"
"2","1",27,756,756,TRUE,0,756,TRUE,39,"right","neutral","down","spatial","FAM"
"2","1",28,1048,1048,TRUE,0,1048,TRUE,37,"left","incongruent","down","center","FAM"
"2","1",29,863,863,TRUE,0,863,TRUE,39,"right","incongruent","up","spatial","FAM"
"2","1",30,947,947,TRUE,0,947,TRUE,39,"right","neutral","down","double","FAM"
"2","1",31,936,936,TRUE,0,936,TRUE,37,"left","incongruent","up","spatial","FAM"
"2","1",32,1179,1179,TRUE,0,1179,TRUE,39,"right","congruent","down","nocue","FAM"
"2","1",33,796,796,TRUE,0,796,TRUE,37,"left","neutral","up","double","FAM"
"2","1",34,890,890,TRUE,0,890,TRUE,37,"left","congruent","up","center","FAM"
"2","1",35,986,986,TRUE,0,986,TRUE,39,"right","congruent","up","nocue","FAM"
"2","1",36,960,960,TRUE,0,960,TRUE,39,"right","incongruent","down","spatial","FAM"
"2","1",37,996,996,TRUE,0,996,TRUE,37,"left","incongruent","up","center","FAM"
"2","1",38,751,751,TRUE,0,751,TRUE,37,"left","neutral","up","spatial","FAM"
"2","1",39,848,848,TRUE,0,848,TRUE,39,"right","congruent","up","center","FAM"
"2","1",40,1045,1045,TRUE,0,1045,TRUE,37,"left","incongruent","down","double","FAM"
"2","1",41,837,837,TRUE,0,837,TRUE,39,"right","congruent","up","spatial","FAM"
"2","1",42,828,828,TRUE,0,828,TRUE,37,"left","congruent","down","center","FAM"
"2","1",43,1193,1193,TRUE,0,1193,TRUE,39,"right","incongruent","up","nocue","FAM"
"2","1",44,1236,1236,TRUE,0,1236,TRUE,39,"right","incongruent","down","center","FAM"
"2","1",45,1010,1010,TRUE,0,1010,TRUE,39,"right","congruent","up","double","FAM"
"2","1",46,818,818,TRUE,0,818,TRUE,39,"right","congruent","down","double","FAM"
"2","1",47,952,952,TRUE,0,952,TRUE,37,"left","incongruent","down","nocue","FAM"
"2","1",48,897,897,TRUE,0,897,TRUE,37,"left","neutral","down","center","FAM"
"2","1",49,1142,1142,TRUE,0,1142,TRUE,39,"right","incongruent","up","nocue","FAM"
"2","1",50,956,956,TRUE,0,956,TRUE,37,"left","neutral","down","double","FAM"
"2","1",51,1013,1013,TRUE,0,1013,TRUE,37,"left","congruent","up","double","FAM"
"2","1",52,906,906,TRUE,0,906,TRUE,37,"left","neutral","down","nocue","FAM"
"2","1",53,1093,1093,TRUE,0,1093,TRUE,37,"left","incongruent","down","nocue","FAM"
"2","1",54,852,852,TRUE,0,852,TRUE,39,"right","neutral","down","spatial","FAM"
"2","1",55,1024,1024,TRUE,0,1024,TRUE,39,"right","neutral","up","center","FAM"
"2","1",56,793,793,TRUE,0,793,TRUE,37,"left","incongruent","up","spatial","FAM"
"2","1",57,922,922,TRUE,0,922,TRUE,39,"right","congruent","up","nocue","FAM"
"2","1",58,956,956,TRUE,0,956,TRUE,37,"left","incongruent","down","spatial","FAM"
"2","1",59,879,879,TRUE,0,879,TRUE,39,"right","incongruent","up","center","FAM"
"2","1",60,1142,1142,TRUE,0,1142,TRUE,39,"right","incongruent","down","nocue","FAM"
"2","1",61,940,940,TRUE,0,940,TRUE,39,"right","congruent","up","center","FAM"
"2","1",62,996,996,TRUE,0,996,TRUE,39,"right","neutral","down","nocue","FAM"
"2","1",63,899,899,TRUE,0,899,TRUE,37,"left","neutral","up","spatial","FAM"
"2","1",64,869,869,TRUE,0,869,TRUE,37,"left","congruent","down","double","FAM"
"2","1",65,976,976,TRUE,0,976,TRUE,37,"left","incongruent","up","center","FAM"
"2","1",66,785,785,TRUE,0,785,TRUE,39,"right","congruent","up","spatial","FAM"
"2","1",67,806,806,TRUE,0,806,TRUE,37,"left","neutral","down","spatial","FAM"
"2","1",68,804,804,TRUE,0,804,TRUE,39,"right","neutral","up","spatial","FAM"
"2","1",69,938,938,TRUE,0,938,TRUE,37,"left","neutral","up","nocue","FAM"
"2","1",70,863,863,TRUE,0,863,TRUE,37,"left","congruent","down","spatial","FAM"
"2","1",71,786,786,TRUE,0,786,TRUE,39,"right","congruent","down","spatial","FAM"
"2","1",72,1339,1339,TRUE,0,1339,TRUE,39,"right","incongruent","down","double","FAM"
"2","1",73,1051,1051,TRUE,0,1051,TRUE,39,"right","incongruent","up","double","FAM"
"2","1",74,852,852,TRUE,0,852,TRUE,39,"right","incongruent","up","spatial","FAM"
"2","1",75,756,756,TRUE,0,756,TRUE,39,"right","congruent","up","double","FAM"
"2","1",76,1012,1012,TRUE,0,1012,TRUE,37,"left","neutral","up","center","FAM"
"2","1",77,998,998,TRUE,0,998,TRUE,37,"left","incongruent","up","nocue","FAM"
"2","1",78,718,718,TRUE,0,718,TRUE,37,"left","congruent","up","spatial","FAM"
"2","1",79,1028,1028,TRUE,0,1028,TRUE,39,"right","congruent","down","center","FAM"
"2","1",80,1022,1022,TRUE,0,1022,TRUE,37,"left","congruent","down","nocue","FAM"
"2","1",81,980,980,TRUE,0,980,TRUE,37,"left","congruent","up","center","FAM"
"2","1",82,998,998,TRUE,0,998,TRUE,39,"right","neutral","down","center","FAM"
"2","1",83,904,904,TRUE,0,904,TRUE,37,"left","congruent","down","center","FAM"
"2","1",84,939,939,TRUE,0,939,TRUE,39,"right","incongruent","down","center","FAM"
"2","1",85,1080,1080,TRUE,0,1080,TRUE,37,"left","neutral","up","double","FAM"
"2","1",86,995,995,TRUE,0,995,TRUE,39,"right","neutral","up","double","FAM"
"2","1",87,979,979,TRUE,0,979,TRUE,39,"right","neutral","up","nocue","FAM"
"2","1",88,900,900,TRUE,0,900,TRUE,39,"right","neutral","down","double","FAM"
"2","1",89,930,930,TRUE,0,930,TRUE,37,"left","congruent","up","nocue","FAM"
"2","1",90,894,894,TRUE,0,894,TRUE,37,"left","incongruent","up","double","FAM"
"2","1",91,1064,1064,TRUE,0,1064,TRUE,37,"left","incongruent","down","center","FAM"
"2","1",92,1086,1086,TRUE,0,1086,TRUE,39,"right","congruent","down","nocue","FAM"
"2","1",93,910,910,TRUE,0,910,TRUE,39,"right","congruent","down","double","FAM"
"2","1",94,808,808,TRUE,0,808,TRUE,39,"right","incongruent","down","spatial","FAM"
"2","1",95,839,839,TRUE,0,839,TRUE,37,"left","incongruent","down","double","FAM"
"2","1",96,901,901,TRUE,0,901,TRUE,37,"left","neutral","down","center","FAM"
"2","1",97,1085,1085,TRUE,0,1085,TRUE,37,"left","incongruent","up","nocue","FAM"
"2","1",98,808,808,TRUE,0,808,TRUE,39,"right","neutral","up","spatial","FAM"
"2","1",99,1028,1028,TRUE,0,1028,TRUE,37,"left","congruent","up","nocue","FAM"
"2","1",100,756,756,TRUE,0,756,TRUE,39,"right","incongruent","up","spatial","FAM"
"2","1",101,724,724,TRUE,0,724,TRUE,37,"left","congruent","up","spatial","FAM"
"2","1",102,731,731,TRUE,0,731,TRUE,39,"right","congruent","down","spatial","FAM"
"2","1",103,1349,1349,TRUE,0,1349,TRUE,39,"right","incongruent","up","double","FAM"
"2","1",104,790,790,TRUE,0,790,TRUE,39,"right","congruent","up","double","FAM"
"2","1",105,1321,1321,TRUE,0,1321,TRUE,39,"right","incongruent","down","double","FAM"
"2","1",106,1112,1112,TRUE,0,1112,TRUE,37,"left","neutral","up","nocue","FAM"
"2","1",107,923,923,TRUE,0,923,TRUE,39,"right","neutral","up","nocue","FAM"
"2","1",108,770,770,TRUE,0,770,TRUE,37,"left","congruent","up","double","FAM"
"2","1",109,961,961,TRUE,0,961,TRUE,39,"right","neutral","down","nocue","FAM"
"2","1",110,755,755,TRUE,0,755,TRUE,39,"right","neutral","up","double","FAM"
"2","1",111,924,924,TRUE,0,924,TRUE,37,"left","neutral","down","nocue","FAM"
"2","1",112,936,936,TRUE,0,936,TRUE,39,"right","incongruent","down","center","FAM"
"2","1",113,968,968,TRUE,0,968,TRUE,37,"left","neutral","up","double","FAM"
"2","1",114,869,869,TRUE,0,869,TRUE,39,"right","congruent","up","center","FAM"
"2","1",115,1038,1038,TRUE,0,1038,TRUE,39,"right","congruent","down","center","FAM"
"2","1",116,789,789,TRUE,0,789,TRUE,39,"right","neutral","down","spatial","FAM"
"2","1",117,1019,1019,TRUE,0,1019,TRUE,37,"left","incongruent","up","double","FAM"
"2","1",118,814,814,TRUE,0,814,TRUE,37,"left","incongruent","up","spatial","FAM"
"2","1",119,839,839,TRUE,0,839,TRUE,39,"right","congruent","up","spatial","FAM"
"2","1",120,798,798,TRUE,0,798,TRUE,37,"left","congruent","up","center","FAM"
"2","1",121,1140,1140,TRUE,0,1140,TRUE,37,"left","incongruent","down","nocue","FAM"
"2","1",122,761,761,TRUE,0,761,TRUE,37,"left","neutral","up","spatial","FAM"
"2","1",123,923,923,TRUE,0,923,TRUE,39,"right","congruent","up","nocue","FAM"
"2","1",124,891,891,TRUE,0,891,TRUE,39,"right","neutral","up","center","FAM"
"2","1",125,809,809,TRUE,0,809,TRUE,37,"left","neutral","down","spatial","FAM"
"2","1",126,938,938,TRUE,0,938,TRUE,39,"right","incongruent","up","center","FAM"
"2","1",127,934,934,TRUE,0,934,TRUE,37,"left","congruent","down","center","FAM"
"2","1",128,846,846,TRUE,0,846,TRUE,37,"left","neutral","down","double","FAM"
"2","1",129,1005,1005,TRUE,0,1005,TRUE,39,"right","congruent","down","nocue","FAM"
"2","1",130,736,736,TRUE,0,736,TRUE,37,"left","congruent","down","double","FAM"
"2","1",131,822,822,TRUE,0,822,TRUE,39,"right","congruent","down","double","FAM"
"2","1",132,1194,1194,TRUE,0,1194,TRUE,39,"right","incongruent","up","nocue","FAM"
"2","1",133,1147,1147,TRUE,0,1147,TRUE,37,"left","incongruent","down","center","FAM"
"2","1",134,924,924,TRUE,0,924,TRUE,37,"left","incongruent","down","spatial","FAM"
"2","1",135,1066,1066,TRUE,0,1066,TRUE,37,"left","incongruent","up","center","FAM"
"2","1",136,977,977,TRUE,0,977,TRUE,39,"right","neutral","down","center","FAM"
"2","1",137,972,972,TRUE,0,972,TRUE,39,"right","incongruent","down","spatial","FAM"
"2","1",138,888,888,TRUE,0,888,TRUE,37,"left","congruent","down","spatial","FAM"
"2","1",139,835,835,TRUE,0,835,TRUE,37,"left","neutral","down","center","FAM"
"2","1",140,915,915,TRUE,0,915,TRUE,39,"right","incongruent","down","nocue","FAM"
"2","1",141,1012,1012,TRUE,0,1012,TRUE,37,"left","neutral","up","center","FAM"
"2","1",142,977,977,TRUE,0,977,TRUE,37,"left","incongruent","down","double","FAM"
"2","1",143,777,777,TRUE,0,777,TRUE,39,"right","neutral","down","double","FAM"
"2","1",144,885,885,TRUE,0,885,TRUE,37,"left","congruent","down","nocue","FAM"
"2","2",1,1117,1117,TRUE,0,1117,TRUE,39,"right","incongruent","up","spatial","FAM"
"2","2",2,1260,1260,TRUE,0,1260,TRUE,39,"right","incongruent","down","nocue","FAM"
"2","2",3,1062,1062,TRUE,0,1062,TRUE,37,"left","neutral","down","double","FAM"
"2","2",4,873,873,TRUE,0,873,TRUE,39,"right","neutral","up","double","FAM"
"2","2",5,1050,1050,TRUE,0,1050,TRUE,37,"left","congruent","down","center","FAM"
"2","2",6,588,588,TRUE,0,588,TRUE,39,"right","incongruent","down","spatial","FAM"
"2","2",7,952,952,TRUE,0,952,TRUE,39,"right","neutral","down","center","FAM"
"2","2",8,847,847,TRUE,0,847,TRUE,39,"right","congruent","up","spatial","FAM"
"2","2",9,1024,1024,TRUE,0,1024,TRUE,37,"left","incongruent","down","center","FAM"
"2","2",10,959,959,TRUE,0,959,TRUE,37,"left","incongruent","up","nocue","FAM"
"2","2",11,798,798,TRUE,0,798,TRUE,37,"left","congruent","down","spatial","FAM"
"2","2",12,1064,1064,TRUE,0,1064,TRUE,39,"right","neutral","up","center","FAM"
"2","2",13,1006,1006,TRUE,0,1006,TRUE,37,"left","neutral","up","nocue","FAM"
"2","2",14,853,853,TRUE,0,853,TRUE,39,"right","congruent","up","center","FAM"
"2","2",15,997,997,TRUE,0,997,TRUE,39,"right","congruent","up","double","FAM"
"2","2",16,1098,1098,TRUE,0,1098,TRUE,39,"right","congruent","up","nocue","FAM"
"2","2",17,812,812,TRUE,0,812,TRUE,39,"right","neutral","up","spatial","FAM"
"2","2",18,983,983,TRUE,0,983,TRUE,37,"left","neutral","down","center","FAM"
"2","2",19,800,800,TRUE,0,800,TRUE,39,"right","congruent","down","nocue","FAM"
"2","2",20,1140,1140,TRUE,0,1140,TRUE,39,"right","incongruent","up","double","FAM"
"2","2",21,946,946,TRUE,0,946,TRUE,37,"left","incongruent","down","double","FAM"
"2","2",22,866,866,TRUE,0,866,TRUE,39,"right","neutral","up","nocue","FAM"
"2","2",23,654,654,TRUE,0,654,TRUE,37,"left","neutral","down","spatial","FAM"
"2","2",24,772,772,TRUE,0,772,TRUE,37,"left","incongruent","up","spatial","FAM"
"2","2",26,905,905,TRUE,0,905,TRUE,37,"left","incongruent","up","double","FAM"
"2","2",27,969,969,TRUE,0,969,TRUE,39,"right","congruent","down","spatial","FAM"
"2","2",28,980,980,TRUE,0,980,TRUE,39,"right","neutral","down","nocue","FAM"
"2","2",29,939,939,TRUE,0,939,TRUE,37,"left","congruent","up","nocue","FAM"
"2","2",30,848,848,TRUE,0,848,TRUE,39,"right","neutral","down","double","FAM"
"2","2",31,943,943,TRUE,0,943,TRUE,37,"left","neutral","up","double","FAM"
"2","2",32,894,894,TRUE,0,894,TRUE,37,"left","neutral","up","center","FAM"
"2","2",33,1085,1085,TRUE,0,1085,TRUE,37,"left","neutral","down","nocue","FAM"
"2","2",34,1270,1270,TRUE,0,1270,TRUE,39,"right","neutral","down","spatial","FAM"
"2","2",35,1387,1387,TRUE,0,1387,TRUE,39,"right","incongruent","down","double","FAM"
"2","2",36,759,759,TRUE,0,759,TRUE,37,"left","incongruent","down","spatial","FAM"
"2","2",37,1089,1089,TRUE,0,1089,TRUE,39,"right","incongruent","up","nocue","FAM"
"2","2",38,948,948,TRUE,0,948,TRUE,37,"left","incongruent","down","nocue","FAM"
"2","2",39,1040,1040,TRUE,0,1040,TRUE,37,"left","congruent","down","nocue","FAM"
"2","2",40,1046,1046,TRUE,0,1046,TRUE,39,"right","congruent","down","center","FAM"
"2","2",41,994,994,TRUE,0,994,TRUE,39,"right","incongruent","up","center","FAM"
"2","2",42,838,838,TRUE,0,838,TRUE,37,"left","congruent","up","center","FAM"
"2","2",43,890,890,TRUE,0,890,TRUE,37,"left","congruent","down","double","FAM"
"2","2",44,775,775,TRUE,0,775,TRUE,37,"left","neutral","up","spatial","FAM"
"2","2",45,890,890,TRUE,0,890,TRUE,37,"left","incongruent","up","center","FAM"
"2","2",46,1009,1009,TRUE,0,1009,TRUE,39,"right","congruent","down","double","FAM"
"2","2",47,701,701,TRUE,0,701,TRUE,37,"left","congruent","up","spatial","FAM"
"2","2",48,887,887,TRUE,0,887,TRUE,37,"left","congruent","up","double","FAM"
"2","2",49,1074,1074,TRUE,0,1074,TRUE,39,"right","congruent","up","double","FAM"
"2","2",50,963,963,TRUE,0,963,TRUE,37,"left","incongruent","up","double","FAM"
"2","2",51,929,929,TRUE,0,929,TRUE,37,"left","incongruent","up","nocue","FAM"
"2","2",52,868,868,TRUE,0,868,TRUE,37,"left","neutral","up","nocue","FAM"
"2","2",53,1122,1122,TRUE,0,1122,TRUE,37,"left","congruent","down","spatial","FAM"
"2","2",54,925,925,TRUE,0,925,TRUE,39,"right","congruent","down","spatial","FAM"
"2","2",55,1144,1144,TRUE,0,1144,TRUE,39,"right","neutral","down","double","FAM"
"2","2",57,898,898,TRUE,0,898,TRUE,37,"left","neutral","up","double","FAM"
"2","2",58,998,998,TRUE,0,998,TRUE,39,"right","incongruent","down","center","FAM"
"2","2",59,769,769,TRUE,0,769,TRUE,37,"left","neutral","down","double","FAM"
"2","2",60,907,907,TRUE,0,907,TRUE,39,"right","neutral","up","spatial","FAM"
"2","2",61,778,778,TRUE,0,778,TRUE,37,"left","incongruent","up","spatial","FAM"
"2","2",62,891,891,TRUE,0,891,TRUE,37,"left","neutral","down","nocue","FAM"
"2","2",63,970,970,TRUE,0,970,TRUE,39,"right","incongruent","down","double","FAM"
"2","2",64,786,786,TRUE,0,786,TRUE,37,"left","congruent","down","double","FAM"
"2","2",65,865,865,TRUE,0,865,TRUE,39,"right","congruent","down","center","FAM"
"2","2",66,941,941,TRUE,0,941,TRUE,39,"right","incongruent","down","nocue","FAM"
"2","2",67,925,925,TRUE,0,925,TRUE,39,"right","congruent","up","spatial","FAM"
"2","2",68,887,887,TRUE,0,887,TRUE,37,"left","neutral","up","center","FAM"
"2","2",69,623,623,TRUE,0,623,TRUE,39,"right","incongruent","down","spatial","FAM"
"2","2",70,763,763,TRUE,0,763,TRUE,37,"left","congruent","up","spatial","FAM"
"2","2",71,959,959,TRUE,0,959,TRUE,37,"left","neutral","down","spatial","FAM"
"2","2",72,1186,1186,TRUE,0,1186,TRUE,39,"right","congruent","up","center","FAM"
"2","2",73,1019,1019,TRUE,0,1019,TRUE,39,"right","congruent","down","double","FAM"
"2","2",74,934,934,TRUE,0,934,TRUE,37,"left","incongruent","up","center","FAM"
"2","2",75,939,939,TRUE,0,939,TRUE,37,"left","congruent","down","center","FAM"
"2","2",76,913,913,TRUE,0,913,TRUE,39,"right","incongruent","up","double","FAM"
"2","2",77,1215,1215,TRUE,0,1215,TRUE,37,"left","incongruent","down","spatial","FAM"
"2","2",78,978,978,TRUE,0,978,TRUE,39,"right","neutral","down","nocue","FAM"
"2","2",79,927,927,TRUE,0,927,TRUE,39,"right","neutral","up","nocue","FAM"
"2","2",80,907,907,TRUE,0,907,TRUE,39,"right","neutral","up","double","FAM"
"2","2",81,916,916,TRUE,0,916,TRUE,37,"left","neutral","down","center","FAM"
"2","2",82,882,882,TRUE,0,882,TRUE,37,"left","congruent","down","nocue","FAM"
"2","2",83,954,954,TRUE,0,954,TRUE,39,"right","incongruent","up","spatial","FAM"
"2","2",84,956,956,TRUE,0,956,TRUE,39,"right","incongruent","up","nocue","FAM"
"2","2",85,826,826,TRUE,0,826,TRUE,37,"left","congruent","up","center","FAM"
"2","2",86,969,969,TRUE,0,969,TRUE,37,"left","incongruent","down","center","FAM"
"2","2",87,747,747,TRUE,0,747,TRUE,39,"right","neutral","down","spatial","FAM"
"2","2",88,977,977,TRUE,0,977,TRUE,39,"right","congruent","down","nocue","FAM"
"2","2",89,1029,1029,TRUE,0,1029,TRUE,37,"left","neutral","up","spatial","FAM"
"2","2",90,877,877,TRUE,0,877,TRUE,37,"left","congruent","up","nocue","FAM"
"2","2",91,1051,1051,TRUE,0,1051,TRUE,39,"right","congruent","up","nocue","FAM"
"2","2",92,953,953,TRUE,0,953,TRUE,39,"right","neutral","up","center","FAM"
"2","2",93,845,845,TRUE,0,845,TRUE,37,"left","congruent","up","double","FAM"
"2","2",94,1023,1023,TRUE,0,1023,TRUE,39,"right","incongruent","up","center","FAM"
"2","2",95,1028,1028,TRUE,0,1028,TRUE,39,"right","neutral","down","center","FAM"
"2","2",96,1048,1048,TRUE,0,1048,TRUE,37,"left","incongruent","down","double","FAM"
"2","2",97,1097,1097,TRUE,0,1097,TRUE,37,"left","neutral","up","spatial","FAM"
"2","2",98,969,969,TRUE,0,969,TRUE,39,"right","incongruent","up","nocue","FAM"
"2","2",99,869,869,TRUE,0,869,TRUE,39,"right","neutral","down","nocue","FAM"
"2","2",100,724,724,TRUE,0,724,TRUE,37,"left","congruent","up","center","FAM"
"2","2",101,1085,1085,TRUE,0,1085,TRUE,37,"left","congruent","down","double","FAM"
"2","2",102,828,828,TRUE,0,828,TRUE,39,"right","congruent","down","spatial","FAM"
"2","2",103,865,865,TRUE,0,865,TRUE,37,"left","congruent","up","nocue","FAM"
"2","2",104,585,585,TRUE,0,585,TRUE,39,"right","neutral","down","center","FAM"
"2","2",105,946,946,TRUE,0,946,TRUE,37,"left","neutral","up","double","FAM"
"2","2",107,791,791,TRUE,0,791,TRUE,37,"left","neutral","up","center","FAM"
"2","2",108,1126,1126,TRUE,0,1126,TRUE,39,"right","incongruent","down","spatial","FAM"
"2","2",109,912,912,TRUE,0,912,TRUE,39,"right","congruent","down","double","FAM"
"2","2",110,883,883,TRUE,0,883,TRUE,37,"left","incongruent","up","double","FAM"
"2","2",111,751,751,TRUE,0,751,TRUE,37,"left","congruent","down","spatial","FAM"
"2","2",112,970,970,TRUE,0,970,TRUE,39,"right","incongruent","up","center","FAM"
"2","2",113,887,887,TRUE,0,887,TRUE,37,"left","congruent","down","center","FAM"
"2","2",114,1095,1095,TRUE,0,1095,TRUE,37,"left","neutral","down","nocue","FAM"
"2","2",115,696,696,TRUE,0,696,TRUE,37,"left","neutral","down","spatial","FAM"
"2","2",116,761,761,TRUE,0,761,TRUE,39,"right","congruent","up","spatial","FAM"
"2","2",117,849,849,TRUE,0,849,TRUE,37,"left","congruent","up","spatial","FAM"
"2","2",118,995,995,TRUE,0,995,TRUE,39,"right","neutral","up","nocue","FAM"
"2","2",119,954,954,TRUE,0,954,TRUE,39,"right","congruent","up","center","FAM"
"2","2",120,903,903,TRUE,0,903,TRUE,37,"left","neutral","down","center","FAM"
"2","2",121,987,987,TRUE,0,987,TRUE,39,"right","congruent","up","double","FAM"
"2","2",122,989,989,TRUE,0,989,TRUE,37,"left","incongruent","up","center","FAM"
"2","2",123,829,829,TRUE,0,829,TRUE,37,"left","incongruent","down","spatial","FAM"
"2","2",124,1002,1002,TRUE,0,1002,TRUE,39,"right","neutral","up","center","FAM"
"2","2",125,905,905,TRUE,0,905,TRUE,39,"right","incongruent","up","spatial","FAM"
"2","2",126,789,789,TRUE,0,789,TRUE,37,"left","congruent","up","double","FAM"
"2","2",127,1192,1192,TRUE,0,1192,TRUE,39,"right","incongruent","down","center","FAM"
"2","2",128,1130,1130,TRUE,0,1130,TRUE,37,"left","incongruent","down","double","FAM"
"2","2",129,960,960,TRUE,0,960,TRUE,37,"left","congruent","down","nocue","FAM"
"2","2",130,988,988,TRUE,0,988,TRUE,39,"right","incongruent","down","double","FAM"
"2","2",131,1174,1174,TRUE,0,1174,TRUE,39,"right","congruent","up","nocue","FAM"
"2","2",132,1055,1055,TRUE,0,1055,TRUE,39,"right","congruent","down","center","FAM"
"2","2",133,949,949,TRUE,0,949,TRUE,39,"right","neutral","down","double","FAM"
"2","2",134,1080,1080,TRUE,0,1080,TRUE,39,"right","incongruent","up","double","FAM"
"2","2",135,907,907,TRUE,0,907,TRUE,39,"right","neutral","down","spatial","FAM"
"2","2",136,1033,1033,TRUE,0,1033,TRUE,39,"right","congruent","down","nocue","FAM"
"2","2",137,1261,1261,TRUE,0,1261,TRUE,37,"left","incongruent","up","nocue","FAM"
"2","2",138,1025,1025,TRUE,0,1025,TRUE,37,"left","neutral","up","nocue","FAM"
"2","2",139,1041,1041,TRUE,0,1041,TRUE,37,"left","neutral","down","double","FAM"
"2","2",140,945,945,TRUE,0,945,TRUE,37,"left","incongruent","down","nocue","FAM"
"2","2",141,968,968,TRUE,0,968,TRUE,37,"left","incongruent","up","spatial","FAM"
"2","2",142,889,889,TRUE,0,889,TRUE,39,"right","neutral","up","spatial","FAM"
"3","1",1,755,755,TRUE,0,755,TRUE,39,"right","incongruent","down","double","Reading"
"3","1",2,563,563,TRUE,0,563,TRUE,37,"left","congruent","down","center","Reading"
"3","1",3,748,748,TRUE,0,748,TRUE,39,"right","incongruent","down","nocue","Reading"
"3","1",4,574,574,TRUE,0,574,TRUE,37,"left","congruent","down","double","Reading"
"3","1",5,548,548,TRUE,0,548,TRUE,37,"left","neutral","up","spatial","Reading"
"3","1",6,618,618,TRUE,0,618,TRUE,37,"left","incongruent","down","center","Reading"
"3","1",7,652,652,TRUE,0,652,TRUE,39,"right","congruent","down","spatial","Reading"
"3","1",8,508,508,TRUE,0,508,TRUE,37,"left","incongruent","up","spatial","Reading"
"3","1",9,682,682,TRUE,0,682,TRUE,39,"right","neutral","up","nocue","Reading"
"3","1",10,808,808,TRUE,0,808,TRUE,39,"right","neutral","up","center","Reading"
"3","1",11,498,498,TRUE,0,498,TRUE,37,"left","incongruent","up","center","Reading"
"3","1",12,731,731,TRUE,0,731,TRUE,39,"right","incongruent","down","center","Reading"
"3","1",13,306,306,TRUE,0,306,TRUE,39,"right","neutral","up","spatial","Reading"
"3","1",14,608,608,TRUE,0,608,TRUE,37,"left","incongruent","down","double","Reading"
"3","1",15,642,642,TRUE,0,642,TRUE,39,"right","congruent","down","double","Reading"
"3","1",16,661,661,TRUE,0,661,TRUE,37,"left","neutral","down","nocue","Reading"
"3","1",17,554,554,TRUE,0,554,TRUE,39,"right","neutral","down","center","Reading"
"3","1",18,584,584,TRUE,0,584,TRUE,37,"left","neutral","down","double","Reading"
"3","1",19,478,478,TRUE,0,478,TRUE,39,"right","congruent","up","double","Reading"
"3","1",20,620,620,TRUE,0,620,TRUE,39,"right","neutral","down","spatial","Reading"
"3","1",21,809,809,TRUE,0,809,TRUE,37,"left","neutral","up","center","Reading"
"3","1",22,746,746,TRUE,0,746,TRUE,39,"right","congruent","down","center","Reading"
"3","1",23,616,616,TRUE,0,616,TRUE,37,"left","neutral","up","double","Reading"
"3","1",24,570,570,TRUE,0,570,TRUE,39,"right","incongruent","up","spatial","Reading"
"3","1",25,637,637,TRUE,0,637,TRUE,37,"left","congruent","up","double","Reading"
"3","1",26,390,390,TRUE,0,390,TRUE,39,"right","congruent","up","spatial","Reading"
"3","1",27,589,589,TRUE,0,589,TRUE,39,"right","congruent","down","nocue","Reading"
"3","1",28,764,764,TRUE,0,764,TRUE,37,"left","congruent","up","nocue","Reading"
"3","1",29,475,475,TRUE,0,475,TRUE,39,"right","neutral","down","nocue","Reading"
"3","1",30,537,537,TRUE,0,537,TRUE,37,"left","incongruent","down","nocue","Reading"
"3","1",31,405,405,TRUE,0,405,TRUE,37,"left","congruent","up","spatial","Reading"
"3","1",32,631,631,TRUE,0,631,TRUE,39,"right","incongruent","up","center","Reading"
"3","1",33,499,499,TRUE,0,499,TRUE,37,"left","congruent","down","nocue","Reading"
"3","1",34,511,511,TRUE,0,511,TRUE,37,"left","congruent","down","spatial","Reading"
"3","1",35,669,669,TRUE,0,669,TRUE,37,"left","incongruent","up","double","Reading"
"3","1",36,613,613,TRUE,0,613,TRUE,39,"right","incongruent","up","nocue","Reading"
"3","1",37,546,546,TRUE,0,546,TRUE,37,"left","neutral","up","nocue","Reading"
"3","1",38,768,768,TRUE,0,768,TRUE,39,"right","neutral","down","double","Reading"
"3","1",39,510,510,TRUE,0,510,TRUE,39,"right","incongruent","up","double","Reading"
"3","1",40,584,584,TRUE,0,584,TRUE,37,"left","congruent","up","center","Reading"
"3","1",41,511,511,TRUE,0,511,TRUE,39,"right","congruent","up","center","Reading"
"3","1",42,554,554,TRUE,0,554,TRUE,37,"left","neutral","down","center","Reading"
"3","1",43,462,462,TRUE,0,462,TRUE,39,"right","neutral","up","double","Reading"
"3","1",44,484,484,TRUE,0,484,TRUE,37,"left","neutral","down","spatial","Reading"
"3","1",45,531,531,TRUE,0,531,TRUE,39,"right","congruent","up","nocue","Reading"
"3","1",46,301,301,TRUE,0,301,TRUE,37,"left","incongruent","down","spatial","Reading"
"3","1",47,623,623,TRUE,0,623,TRUE,39,"right","incongruent","down","spatial","Reading"
"3","1",49,611,611,TRUE,0,611,TRUE,37,"left","congruent","up","center","Reading"
"3","1",50,499,499,TRUE,0,499,TRUE,39,"right","neutral","up","nocue","Reading"
"3","1",51,494,494,TRUE,0,494,TRUE,37,"left","neutral","up","spatial","Reading"
"3","1",52,503,503,TRUE,0,503,TRUE,37,"left","neutral","down","spatial","Reading"
"3","1",53,788,788,TRUE,0,788,TRUE,39,"right","incongruent","down","nocue","Reading"
"3","1",54,570,570,TRUE,0,570,TRUE,37,"left","incongruent","down","center","Reading"
"3","1",55,490,490,TRUE,0,490,TRUE,37,"left","congruent","down","spatial","Reading"
"3","1",56,470,470,TRUE,0,470,TRUE,37,"left","congruent","down","double","Reading"
"3","1",57,637,637,TRUE,0,637,TRUE,37,"left","neutral","up","center","Reading"
"3","1",58,484,484,TRUE,0,484,TRUE,37,"left","congruent","up","spatial","Reading"
"3","1",59,617,617,TRUE,0,617,TRUE,39,"right","incongruent","up","spatial","Reading"
"3","1",60,504,504,TRUE,0,504,TRUE,37,"left","neutral","down","nocue","Reading"
"3","1",61,550,550,TRUE,0,550,TRUE,37,"left","incongruent","up","spatial","Reading"
"3","1",62,649,649,TRUE,0,649,TRUE,39,"right","congruent","down","nocue","Reading"
"3","1",63,550,550,TRUE,0,550,TRUE,37,"left","congruent","down","nocue","Reading"
"3","1",64,528,528,TRUE,0,528,TRUE,37,"left","congruent","down","center","Reading"
"3","1",65,575,575,TRUE,0,575,TRUE,39,"right","incongruent","up","center","Reading"
"3","1",66,580,580,TRUE,0,580,TRUE,39,"right","congruent","down","double","Reading"
"3","1",67,577,577,TRUE,0,577,TRUE,39,"right","neutral","up","spatial","Reading"
"3","1",69,626,626,TRUE,0,626,TRUE,39,"right","incongruent","up","nocue","Reading"
"3","1",70,499,499,TRUE,0,499,TRUE,39,"right","congruent","up","double","Reading"
"3","1",71,496,496,TRUE,0,496,TRUE,39,"right","neutral","down","spatial","Reading"
"3","1",72,592,592,TRUE,0,592,TRUE,37,"left","neutral","up","double","Reading"
"3","1",73,516,516,TRUE,0,516,TRUE,39,"right","congruent","down","center","Reading"
"3","1",74,460,460,TRUE,0,460,TRUE,39,"right","neutral","down","center","Reading"
"3","1",75,558,558,TRUE,0,558,TRUE,39,"right","neutral","up","double","Reading"
"3","1",77,664,664,TRUE,0,664,TRUE,37,"left","incongruent","down","nocue","Reading"
"3","1",78,575,575,TRUE,0,575,TRUE,37,"left","neutral","down","double","Reading"
"3","1",79,476,476,TRUE,0,476,TRUE,37,"left","incongruent","down","spatial","Reading"
"3","1",80,668,668,TRUE,0,668,TRUE,39,"right","congruent","down","spatial","Reading"
"3","1",81,546,546,TRUE,0,546,TRUE,39,"right","congruent","up","spatial","Reading"
"3","1",82,764,764,TRUE,0,764,TRUE,39,"right","congruent","up","nocue","Reading"
"3","1",83,691,691,TRUE,0,691,TRUE,37,"left","incongruent","down","double","Reading"
"3","1",84,678,678,TRUE,0,678,TRUE,39,"right","incongruent","down","center","Reading"
"3","1",85,599,599,TRUE,0,599,TRUE,39,"right","congruent","up","center","Reading"
"3","1",86,595,595,TRUE,0,595,TRUE,39,"right","incongruent","down","double","Reading"
"3","1",87,539,539,TRUE,0,539,TRUE,39,"right","incongruent","down","spatial","Reading"
"3","1",88,658,658,TRUE,0,658,TRUE,39,"right","incongruent","up","double","Reading"
"3","1",89,555,555,TRUE,0,555,TRUE,37,"left","neutral","down","center","Reading"
"3","1",90,614,614,TRUE,0,614,TRUE,39,"right","neutral","down","double","Reading"
"3","1",91,740,740,TRUE,0,740,TRUE,37,"left","congruent","up","double","Reading"
"3","1",92,702,702,TRUE,0,702,TRUE,37,"left","incongruent","up","nocue","Reading"
"3","1",93,610,610,TRUE,0,610,TRUE,37,"left","neutral","up","nocue","Reading"
"3","1",94,582,582,TRUE,0,582,TRUE,39,"right","neutral","up","center","Reading"
"3","1",95,627,627,TRUE,0,627,TRUE,37,"left","incongruent","up","center","Reading"
"3","1",96,588,588,TRUE,0,588,TRUE,39,"right","neutral","down","nocue","Reading"
"3","1",97,543,543,TRUE,0,543,TRUE,39,"right","neutral","up","center","Reading"
"3","1",98,841,841,TRUE,0,841,TRUE,37,"left","incongruent","up","nocue","Reading"
"3","1",99,583,583,TRUE,0,583,TRUE,39,"right","congruent","down","center","Reading"
"3","1",100,756,756,TRUE,0,756,TRUE,39,"right","incongruent","up","double","Reading"
"3","1",101,595,595,TRUE,0,595,TRUE,39,"right","congruent","up","nocue","Reading"
"3","1",102,559,559,TRUE,0,559,TRUE,37,"left","neutral","up","spatial","Reading"
"3","1",103,576,576,TRUE,0,576,TRUE,39,"right","congruent","down","double","Reading"
"3","1",104,534,534,TRUE,0,534,TRUE,39,"right","incongruent","up","center","Reading"
"3","1",105,785,785,TRUE,0,785,TRUE,39,"right","incongruent","down","nocue","Reading"
"3","1",106,544,544,TRUE,0,544,TRUE,37,"left","neutral","down","spatial","Reading"
"3","1",107,520,520,TRUE,0,520,TRUE,37,"left","incongruent","down","spatial","Reading"
"3","1",108,631,631,TRUE,0,631,TRUE,37,"left","incongruent","up","center","Reading"
"3","1",109,603,603,TRUE,0,603,TRUE,37,"left","neutral","up","center","Reading"
"3","1",110,564,564,TRUE,0,564,TRUE,37,"left","incongruent","down","nocue","Reading"
"3","1",111,756,756,TRUE,0,756,TRUE,39,"right","neutral","up","double","Reading"
"3","1",112,575,575,TRUE,0,575,TRUE,39,"right","incongruent","down","center","Reading"
"3","1",113,577,577,TRUE,0,577,TRUE,37,"left","incongruent","down","center","Reading"
"3","1",114,696,696,TRUE,0,696,TRUE,37,"left","congruent","down","nocue","Reading"
"3","1",115,452,452,TRUE,0,452,TRUE,37,"left","neutral","down","nocue","Reading"
"3","1",116,568,568,TRUE,0,568,TRUE,39,"right","neutral","up","spatial","Reading"
"3","1",117,546,546,TRUE,0,546,TRUE,39,"right","incongruent","down","spatial","Reading"
"3","1",118,535,535,TRUE,0,535,TRUE,37,"left","neutral","down","center","Reading"
"3","1",119,591,591,TRUE,0,591,TRUE,39,"right","neutral","down","center","Reading"
"3","1",120,552,552,TRUE,0,552,TRUE,37,"left","congruent","up","spatial","Reading"
"3","1",121,483,483,TRUE,0,483,TRUE,37,"left","congruent","up","nocue","Reading"
"3","1",122,383,383,TRUE,0,383,TRUE,37,"left","incongruent","up","spatial","Reading"
"3","1",123,405,405,TRUE,0,405,TRUE,39,"right","congruent","down","spatial","Reading"
"3","1",124,584,584,TRUE,0,584,TRUE,39,"right","neutral","up","nocue","Reading"
"3","1",125,531,531,TRUE,0,531,TRUE,39,"right","neutral","down","nocue","Reading"
"3","1",126,589,589,TRUE,0,589,TRUE,39,"right","congruent","up","double","Reading"
"3","1",127,416,416,TRUE,0,416,TRUE,39,"right","incongruent","up","spatial","Reading"
"3","1",128,727,727,TRUE,0,727,TRUE,39,"right","incongruent","up","nocue","Reading"
"3","1",130,532,532,TRUE,0,532,TRUE,37,"left","congruent","up","double","Reading"
"3","1",131,499,499,TRUE,0,499,TRUE,39,"right","neutral","down","double","Reading"
"3","1",132,511,511,TRUE,0,511,TRUE,39,"right","incongruent","down","double","Reading"
"3","1",133,447,447,TRUE,0,447,TRUE,39,"right","congruent","down","nocue","Reading"
"3","1",135,559,559,TRUE,0,559,TRUE,39,"right","congruent","up","spatial","Reading"
"3","1",136,523,523,TRUE,0,523,TRUE,37,"left","neutral","up","nocue","Reading"
"3","1",137,611,611,TRUE,0,611,TRUE,37,"left","congruent","down","double","Reading"
"3","1",138,640,640,TRUE,0,640,TRUE,39,"right","congruent","up","center","Reading"
"3","1",139,512,512,TRUE,0,512,TRUE,37,"left","neutral","down","double","Reading"
"3","1",140,628,628,TRUE,0,628,TRUE,37,"left","congruent","down","center","Reading"
"3","1",141,559,559,TRUE,0,559,TRUE,39,"right","neutral","down","spatial","Reading"
"3","1",142,554,554,TRUE,0,554,TRUE,37,"left","congruent","up","center","Reading"
"3","1",143,538,538,TRUE,0,538,TRUE,37,"left","incongruent","up","double","Reading"
"3","1",144,605,605,TRUE,0,605,TRUE,37,"left","incongruent","down","double","Reading"
"3","2",1,719,719,TRUE,0,719,TRUE,39,"right","incongruent","down","double","Reading"
"3","2",2,652,652,TRUE,0,652,TRUE,37,"left","congruent","down","center","Reading"
"3","2",3,553,553,TRUE,0,553,TRUE,39,"right","neutral","up","spatial","Reading"
"3","2",5,639,639,TRUE,0,639,TRUE,39,"right","congruent","down","nocue","Reading"
"3","2",6,619,619,TRUE,0,619,TRUE,39,"right","congruent","up","center","Reading"
"3","2",7,678,678,TRUE,0,678,TRUE,37,"left","neutral","up","nocue","Reading"
"3","2",8,534,534,TRUE,0,534,TRUE,37,"left","neutral","down","spatial","Reading"
"3","2",9,627,627,TRUE,0,627,TRUE,37,"left","incongruent","up","double","Reading"
"3","2",11,812,812,TRUE,0,812,TRUE,39,"right","congruent","down","spatial","Reading"
"3","2",12,520,520,TRUE,0,520,TRUE,39,"right","neutral","up","center","Reading"
"3","2",13,593,593,TRUE,0,593,TRUE,39,"right","congruent","down","center","Reading"
"3","2",14,564,564,TRUE,0,564,TRUE,37,"left","neutral","down","center","Reading"
"3","2",15,824,824,TRUE,0,824,TRUE,37,"left","congruent","up","nocue","Reading"
"3","2",16,544,544,TRUE,0,544,TRUE,39,"right","incongruent","up","spatial","Reading"
"3","2",17,584,584,TRUE,0,584,TRUE,39,"right","congruent","down","double","Reading"
"3","2",18,506,506,TRUE,0,506,TRUE,39,"right","neutral","down","spatial","Reading"
"3","2",19,587,587,TRUE,0,587,TRUE,37,"left","congruent","down","double","Reading"
"3","2",20,531,531,TRUE,0,531,TRUE,37,"left","neutral","down","double","Reading"
"3","2",21,660,660,TRUE,0,660,TRUE,39,"right","congruent","up","double","Reading"
"3","2",22,632,632,TRUE,0,632,TRUE,37,"left","congruent","up","double","Reading"
"3","2",24,610,610,TRUE,0,610,TRUE,39,"right","incongruent","down","nocue","Reading"
"3","2",25,594,594,TRUE,0,594,TRUE,39,"right","neutral","down","nocue","Reading"
"3","2",26,642,642,TRUE,0,642,TRUE,37,"left","congruent","up","spatial","Reading"
"3","2",27,667,667,TRUE,0,667,TRUE,37,"left","congruent","down","nocue","Reading"
"3","2",28,583,583,TRUE,0,583,TRUE,39,"right","neutral","up","nocue","Reading"
"3","2",29,468,468,TRUE,0,468,TRUE,37,"left","incongruent","down","spatial","Reading"
"3","2",30,540,540,TRUE,0,540,TRUE,39,"right","congruent","up","nocue","Reading"
"3","2",31,507,507,TRUE,0,507,TRUE,39,"right","neutral","up","double","Reading"
"3","2",32,580,580,TRUE,0,580,TRUE,37,"left","neutral","up","center","Reading"
"3","2",33,554,554,TRUE,0,554,TRUE,37,"left","incongruent","down","double","Reading"
"3","2",34,527,527,TRUE,0,527,TRUE,39,"right","congruent","up","spatial","Reading"
"3","2",35,598,598,TRUE,0,598,TRUE,37,"left","neutral","up","double","Reading"
"3","2",36,513,513,TRUE,0,513,TRUE,37,"left","incongruent","down","nocue","Reading"
"3","2",37,474,474,TRUE,0,474,TRUE,37,"left","incongruent","down","center","Reading"
"3","2",38,579,579,TRUE,0,579,TRUE,39,"right","incongruent","up","nocue","Reading"
"3","2",39,694,694,TRUE,0,694,TRUE,37,"left","congruent","up","center","Reading"
"3","2",40,609,609,TRUE,0,609,TRUE,37,"left","incongruent","up","center","Reading"
"3","2",41,538,538,TRUE,0,538,TRUE,37,"left","neutral","down","nocue","Reading"
"3","2",42,651,651,TRUE,0,651,TRUE,39,"right","incongruent","up","center","Reading"
"3","2",43,499,499,TRUE,0,499,TRUE,37,"left","neutral","up","spatial","Reading"
"3","2",44,482,482,TRUE,0,482,TRUE,37,"left","incongruent","up","spatial","Reading"
"3","2",45,479,479,TRUE,0,479,TRUE,37,"left","congruent","down","spatial","Reading"
"3","2",46,583,583,TRUE,0,583,TRUE,39,"right","neutral","down","double","Reading"
"3","2",47,535,535,TRUE,0,535,TRUE,39,"right","neutral","down","center","Reading"
"3","2",48,544,544,TRUE,0,544,TRUE,39,"right","incongruent","down","spatial","Reading"
"3","2",49,504,504,TRUE,0,504,TRUE,39,"right","neutral","up","nocue","Reading"
"3","2",50,466,466,TRUE,0,466,TRUE,39,"right","neutral","down","center","Reading"
"3","2",51,565,565,TRUE,0,565,TRUE,37,"left","neutral","up","center","Reading"
"3","2",52,537,537,TRUE,0,537,TRUE,39,"right","neutral","down","double","Reading"
"3","2",53,435,435,TRUE,0,435,TRUE,39,"right","neutral","down","spatial","Reading"
"3","2",54,454,454,TRUE,0,454,TRUE,39,"right","incongruent","up","spatial","Reading"
"3","2",55,560,560,TRUE,0,560,TRUE,37,"left","congruent","down","center","Reading"
"3","2",56,516,516,TRUE,0,516,TRUE,37,"left","neutral","up","double","Reading"
"3","2",57,550,550,TRUE,0,550,TRUE,39,"right","congruent","up","center","Reading"
"3","2",58,649,649,TRUE,0,649,TRUE,37,"left","incongruent","up","spatial","Reading"
"3","2",59,527,527,TRUE,0,527,TRUE,39,"right","neutral","up","spatial","Reading"
"3","2",60,577,577,TRUE,0,577,TRUE,37,"left","incongruent","down","nocue","Reading"
"3","2",61,478,478,TRUE,0,478,TRUE,37,"left","neutral","down","double","Reading"
"3","2",62,634,634,TRUE,0,634,TRUE,39,"right","incongruent","up","nocue","Reading"
"3","2",63,670,670,TRUE,0,670,TRUE,39,"right","incongruent","down","spatial","Reading"
"3","2",64,506,506,TRUE,0,506,TRUE,39,"right","congruent","up","spatial","Reading"
"3","2",65,625,625,TRUE,0,625,TRUE,39,"right","congruent","up","double","Reading"
"3","2",66,450,450,TRUE,0,450,TRUE,39,"right","congruent","down","spatial","Reading"
"3","2",67,653,653,TRUE,0,653,TRUE,39,"right","congruent","down","center","Reading"
"3","2",68,587,587,TRUE,0,587,TRUE,37,"left","congruent","up","double","Reading"
"3","2",69,550,550,TRUE,0,550,TRUE,37,"left","neutral","down","nocue","Reading"
"3","2",70,485,485,TRUE,0,485,TRUE,37,"left","congruent","down","nocue","Reading"
"3","2",71,670,670,TRUE,0,670,TRUE,37,"left","incongruent","up","center","Reading"
"3","2",72,500,500,TRUE,0,500,TRUE,39,"right","incongruent","up","double","Reading"
"3","2",73,524,524,TRUE,0,524,TRUE,39,"right","neutral","up","double","Reading"
"3","2",74,723,723,TRUE,0,723,TRUE,37,"left","congruent","up","nocue","Reading"
"3","2",75,478,478,TRUE,0,478,TRUE,37,"left","neutral","down","spatial","Reading"
"3","2",76,599,599,TRUE,0,599,TRUE,37,"left","incongruent","up","double","Reading"
"3","2",77,503,503,TRUE,0,503,TRUE,37,"left","neutral","up","spatial","Reading"
"3","2",78,647,647,TRUE,0,647,TRUE,39,"right","neutral","down","nocue","Reading"
"3","2",79,545,545,TRUE,0,545,TRUE,37,"left","congruent","up","center","Reading"
"3","2",80,514,514,TRUE,0,514,TRUE,37,"left","incongruent","down","spatial","Reading"
"3","2",81,560,560,TRUE,0,560,TRUE,37,"left","incongruent","up","nocue","Reading"
"3","2",82,469,469,TRUE,0,469,TRUE,37,"left","congruent","down","spatial","Reading"
"3","2",83,642,642,TRUE,0,642,TRUE,39,"right","neutral","up","center","Reading"
"3","2",84,845,845,TRUE,0,845,TRUE,39,"right","congruent","down","nocue","Reading"
"3","2",85,544,544,TRUE,0,544,TRUE,37,"left","incongruent","down","double","Reading"
"3","2",86,602,602,TRUE,0,602,TRUE,37,"left","neutral","up","nocue","Reading"
"3","2",87,601,601,TRUE,0,601,TRUE,39,"right","congruent","up","nocue","Reading"
"3","2",88,551,551,TRUE,0,551,TRUE,37,"left","incongruent","down","center","Reading"
"3","2",89,721,721,TRUE,0,721,TRUE,39,"right","incongruent","down","double","Reading"
"3","2",90,538,538,TRUE,0,538,TRUE,37,"left","congruent","down","double","Reading"
"3","2",91,800,800,TRUE,0,800,TRUE,39,"right","incongruent","up","center","Reading"
"3","2",92,515,515,TRUE,0,515,TRUE,37,"left","neutral","down","center","Reading"
"3","2",93,466,466,TRUE,0,466,TRUE,37,"left","congruent","up","spatial","Reading"
"3","2",94,577,577,TRUE,0,577,TRUE,39,"right","incongruent","down","center","Reading"
"3","2",95,683,683,TRUE,0,683,TRUE,39,"right","incongruent","down","nocue","Reading"
"3","2",96,561,561,TRUE,0,561,TRUE,39,"right","congruent","down","double","Reading"
"3","2",97,553,553,TRUE,0,553,TRUE,37,"left","neutral","up","double","Reading"
"3","2",98,639,639,TRUE,0,639,TRUE,37,"left","neutral","down","nocue","Reading"
"3","2",99,503,503,TRUE,0,503,TRUE,37,"left","incongruent","up","spatial","Reading"
"3","2",100,580,580,TRUE,0,580,TRUE,37,"left","neutral","down","center","Reading"
"3","2",101,688,688,TRUE,0,688,TRUE,37,"left","incongruent","up","nocue","Reading"
"3","2",102,608,608,TRUE,0,608,TRUE,37,"left","incongruent","down","center","Reading"
"3","2",103,432,432,TRUE,0,432,TRUE,37,"left","neutral","down","spatial","Reading"
"3","2",104,574,574,TRUE,0,574,TRUE,39,"right","congruent","up","nocue","Reading"
"3","2",106,489,489,TRUE,0,489,TRUE,39,"right","congruent","down","nocue","Reading"
"3","2",107,556,556,TRUE,0,556,TRUE,39,"right","incongruent","up","spatial","Reading"
"3","2",108,533,533,TRUE,0,533,TRUE,39,"right","neutral","up","nocue","Reading"
"3","2",109,512,512,TRUE,0,512,TRUE,39,"right","neutral","up","center","Reading"
"3","2",110,546,546,TRUE,0,546,TRUE,37,"left","neutral","down","double","Reading"
"3","2",111,519,519,TRUE,0,519,TRUE,39,"right","incongruent","up","double","Reading"
"3","2",112,456,456,TRUE,0,456,TRUE,39,"right","neutral","up","spatial","Reading"
"3","2",113,642,642,TRUE,0,642,TRUE,39,"right","neutral","down","double","Reading"
"3","2",114,546,546,TRUE,0,546,TRUE,39,"right","neutral","up","double","Reading"
"3","2",115,481,481,TRUE,0,481,TRUE,39,"right","neutral","down","spatial","Reading"
"3","2",116,487,487,TRUE,0,487,TRUE,39,"right","incongruent","down","spatial","Reading"
"3","2",117,763,763,TRUE,0,763,TRUE,37,"left","congruent","up","double","Reading"
"3","2",118,540,540,TRUE,0,540,TRUE,39,"right","incongruent","down","nocue","Reading"
"3","2",119,578,578,TRUE,0,578,TRUE,39,"right","congruent","up","center","Reading"
"3","2",120,521,521,TRUE,0,521,TRUE,39,"right","congruent","up","double","Reading"
"3","2",121,584,584,TRUE,0,584,TRUE,37,"left","congruent","down","nocue","Reading"
"3","2",122,634,634,TRUE,0,634,TRUE,39,"right","congruent","down","double","Reading"
"3","2",123,535,535,TRUE,0,535,TRUE,37,"left","congruent","down","double","Reading"
"3","2",124,510,510,TRUE,0,510,TRUE,37,"left","congruent","down","spatial","Reading"
"3","2",125,455,455,TRUE,0,455,TRUE,39,"right","congruent","up","spatial","Reading"
"3","2",126,707,707,TRUE,0,707,TRUE,37,"left","incongruent","down","double","Reading"
"3","2",128,447,447,TRUE,0,447,TRUE,37,"left","neutral","up","spatial","Reading"
"3","2",129,700,700,TRUE,0,700,TRUE,39,"right","incongruent","up","nocue","Reading"
"3","2",130,616,616,TRUE,0,616,TRUE,37,"left","incongruent","down","nocue","Reading"
"3","2",131,536,536,TRUE,0,536,TRUE,37,"left","congruent","up","spatial","Reading"
"3","2",132,530,530,TRUE,0,530,TRUE,39,"right","congruent","down","spatial","Reading"
"3","2",133,529,529,TRUE,0,529,TRUE,37,"left","neutral","up","center","Reading"
"3","2",134,531,531,TRUE,0,531,TRUE,37,"left","congruent","down","center","Reading"
"3","2",135,577,577,TRUE,0,577,TRUE,37,"left","neutral","up","nocue","Reading"
"3","2",136,721,721,TRUE,0,721,TRUE,39,"right","incongruent","down","double","Reading"
"3","2",137,588,588,TRUE,0,588,TRUE,39,"right","neutral","down","nocue","Reading"
"3","2",138,614,614,TRUE,0,614,TRUE,39,"right","incongruent","up","center","Reading"
"3","2",139,670,670,TRUE,0,670,TRUE,37,"left","incongruent","up","center","Reading"
"3","2",140,590,590,TRUE,0,590,TRUE,39,"right","congruent","down","center","Reading"
"3","2",141,575,575,TRUE,0,575,TRUE,39,"right","neutral","down","center","Reading"
"3","2",142,611,611,TRUE,0,611,TRUE,37,"left","congruent","up","center","Reading"
"3","2",143,546,546,TRUE,0,546,TRUE,37,"left","incongruent","down","spatial","Reading"
"3","2",144,636,636,TRUE,0,636,TRUE,37,"left","congruent","up","nocue","Reading"
"4","1",1,651,651,TRUE,0,651,TRUE,37,"left","incongruent","up","double","FAM"
"4","1",2,569,569,TRUE,0,569,TRUE,37,"left","neutral","down","spatial","FAM"
"4","1",3,647,647,TRUE,0,647,TRUE,39,"right","neutral","down","center","FAM"
"4","1",4,833,833,TRUE,0,833,TRUE,39,"right","congruent","up","nocue","FAM"
"4","1",5,673,673,TRUE,0,673,TRUE,37,"left","congruent","up","center","FAM"
"4","1",6,651,651,TRUE,0,651,TRUE,39,"right","neutral","up","center","FAM"
"4","1",7,796,796,TRUE,0,796,TRUE,39,"right","neutral","up","double","FAM"
"4","1",8,624,624,TRUE,0,624,TRUE,37,"left","incongruent","up","spatial","FAM"
"4","1",9,647,647,TRUE,0,647,TRUE,37,"left","incongruent","up","center","FAM"
"4","1",10,746,746,TRUE,0,746,TRUE,37,"left","incongruent","up","nocue","FAM"
"4","1",11,745,745,TRUE,0,745,TRUE,39,"right","congruent","up","double","FAM"
"4","1",12,686,686,TRUE,0,686,TRUE,39,"right","congruent","down","double","FAM"
"4","1",13,590,590,TRUE,0,590,TRUE,37,"left","congruent","down","spatial","FAM"
"4","1",14,604,604,TRUE,0,604,TRUE,39,"right","neutral","down","spatial","FAM"
"4","1",15,878,878,TRUE,0,878,TRUE,39,"right","congruent","down","center","FAM"
"4","1",16,675,675,TRUE,0,675,TRUE,39,"right","incongruent","up","nocue","FAM"
"4","1",17,636,636,TRUE,0,636,TRUE,39,"right","incongruent","down","nocue","FAM"
"4","1",19,595,595,TRUE,0,595,TRUE,39,"right","neutral","down","nocue","FAM"
"4","1",20,604,604,TRUE,0,604,TRUE,39,"right","neutral","up","nocue","FAM"
"4","1",21,629,629,TRUE,0,629,TRUE,39,"right","incongruent","up","center","FAM"
"4","1",22,566,566,TRUE,0,566,TRUE,37,"left","neutral","up","double","FAM"
"4","1",23,589,589,TRUE,0,589,TRUE,39,"right","incongruent","down","double","FAM"
"4","1",24,562,562,TRUE,0,562,TRUE,39,"right","incongruent","down","spatial","FAM"
"4","1",25,630,630,TRUE,0,630,TRUE,37,"left","incongruent","down","center","FAM"
"4","1",26,553,553,TRUE,0,553,TRUE,37,"left","neutral","down","double","FAM"
"4","1",27,593,593,TRUE,0,593,TRUE,37,"left","congruent","up","double","FAM"
"4","1",28,557,557,TRUE,0,557,TRUE,37,"left","neutral","up","nocue","FAM"
"4","1",29,558,558,TRUE,0,558,TRUE,37,"left","neutral","down","center","FAM"
"4","1",30,564,564,TRUE,0,564,TRUE,37,"left","neutral","down","nocue","FAM"
"4","1",31,586,586,TRUE,0,586,TRUE,37,"left","congruent","up","spatial","FAM"
"4","1",33,653,653,TRUE,0,653,TRUE,39,"right","neutral","up","spatial","FAM"
"4","1",34,564,564,TRUE,0,564,TRUE,37,"left","incongruent","down","spatial","FAM"
"4","1",35,510,510,TRUE,0,510,TRUE,37,"left","neutral","up","center","FAM"
"4","1",36,542,542,TRUE,0,542,TRUE,39,"right","congruent","up","spatial","FAM"
"4","1",37,589,589,TRUE,0,589,TRUE,37,"left","incongruent","down","double","FAM"
"4","1",38,622,622,TRUE,0,622,TRUE,39,"right","incongruent","up","double","FAM"
"4","1",40,652,652,TRUE,0,652,TRUE,37,"left","congruent","down","center","FAM"
"4","1",41,643,643,TRUE,0,643,TRUE,39,"right","congruent","down","nocue","FAM"
"4","1",42,521,521,TRUE,0,521,TRUE,37,"left","neutral","up","spatial","FAM"
"4","1",43,516,516,TRUE,0,516,TRUE,39,"right","congruent","up","center","FAM"
"4","1",44,612,612,TRUE,0,612,TRUE,39,"right","incongruent","up","spatial","FAM"
"4","1",45,680,680,TRUE,0,680,TRUE,37,"left","incongruent","down","nocue","FAM"
"4","1",47,707,707,TRUE,0,707,TRUE,37,"left","congruent","down","double","FAM"
"4","1",48,636,636,TRUE,0,636,TRUE,39,"right","incongruent","down","center","FAM"
"4","1",49,745,745,TRUE,0,745,TRUE,37,"left","congruent","down","double","FAM"
"4","1",50,552,552,TRUE,0,552,TRUE,39,"right","congruent","up","spatial","FAM"
"4","1",51,640,640,TRUE,0,640,TRUE,39,"right","incongruent","up","center","FAM"
"4","1",52,559,559,TRUE,0,559,TRUE,39,"right","incongruent","up","spatial","FAM"
"4","1",53,771,771,TRUE,0,771,TRUE,39,"right","incongruent","down","double","FAM"
"4","1",54,625,625,TRUE,0,625,TRUE,39,"right","neutral","up","nocue","FAM"
"4","1",55,772,772,TRUE,0,772,TRUE,37,"left","incongruent","down","double","FAM"
"4","1",56,500,500,TRUE,0,500,TRUE,39,"right","neutral","up","double","FAM"
"4","1",57,650,650,TRUE,0,650,TRUE,37,"left","incongruent","up","double","FAM"
"4","1",58,607,607,TRUE,0,607,TRUE,39,"right","congruent","down","spatial","FAM"
"4","1",59,619,619,TRUE,0,619,TRUE,39,"right","incongruent","up","double","FAM"
"4","1",60,632,632,TRUE,0,632,TRUE,37,"left","incongruent","up","spatial","FAM"
"4","1",61,587,587,TRUE,0,587,TRUE,37,"left","congruent","up","spatial","FAM"
"4","1",62,576,576,TRUE,0,576,TRUE,39,"right","neutral","up","center","FAM"
"4","1",63,617,617,TRUE,0,617,TRUE,39,"right","neutral","down","spatial","FAM"
"4","1",64,684,684,TRUE,0,684,TRUE,37,"left","congruent","down","nocue","FAM"
"4","1",65,579,579,TRUE,0,579,TRUE,37,"left","neutral","down","nocue","FAM"
"4","1",66,560,560,TRUE,0,560,TRUE,37,"left","congruent","down","spatial","FAM"
"4","1",67,545,545,TRUE,0,545,TRUE,37,"left","incongruent","down","nocue","FAM"
"4","1",68,771,771,TRUE,0,771,TRUE,37,"left","incongruent","up","center","FAM"
"4","1",69,555,555,TRUE,0,555,TRUE,37,"left","neutral","up","center","FAM"
"4","1",70,602,602,TRUE,0,602,TRUE,37,"left","neutral","up","nocue","FAM"
"4","1",71,681,681,TRUE,0,681,TRUE,39,"right","incongruent","down","center","FAM"
"4","1",72,741,741,TRUE,0,741,TRUE,39,"right","congruent","down","center","FAM"
"4","1",73,602,602,TRUE,0,602,TRUE,39,"right","congruent","up","double","FAM"
"4","1",74,669,669,TRUE,0,669,TRUE,39,"right","incongruent","down","nocue","FAM"
"4","1",75,664,664,TRUE,0,664,TRUE,39,"right","congruent","up","center","FAM"
"4","1",76,630,630,TRUE,0,630,TRUE,37,"left","neutral","down","double","FAM"
"4","1",77,662,662,TRUE,0,662,TRUE,37,"left","congruent","up","nocue","FAM"
"4","1",78,716,716,TRUE,0,716,TRUE,37,"left","congruent","up","center","FAM"
"4","1",79,664,664,TRUE,0,664,TRUE,37,"left","incongruent","up","nocue","FAM"
"4","1",80,739,739,TRUE,0,739,TRUE,39,"right","congruent","down","nocue","FAM"
"4","1",81,661,661,TRUE,0,661,TRUE,39,"right","incongruent","up","nocue","FAM"
"4","1",82,628,628,TRUE,0,628,TRUE,37,"left","congruent","up","double","FAM"
"4","1",83,630,630,TRUE,0,630,TRUE,37,"left","congruent","down","center","FAM"
"4","1",84,549,549,TRUE,0,549,TRUE,37,"left","neutral","up","spatial","FAM"
"4","1",85,536,536,TRUE,0,536,TRUE,39,"right","neutral","down","double","FAM"
"4","1",86,564,564,TRUE,0,564,TRUE,37,"left","neutral","down","spatial","FAM"
"4","1",87,603,603,TRUE,0,603,TRUE,39,"right","neutral","up","spatial","FAM"
"4","1",88,609,609,TRUE,0,609,TRUE,39,"right","incongruent","down","spatial","FAM"
"4","1",89,723,723,TRUE,0,723,TRUE,39,"right","congruent","up","nocue","FAM"
"4","1",90,660,660,TRUE,0,660,TRUE,37,"left","incongruent","down","spatial","FAM"
"4","1",91,563,563,TRUE,0,563,TRUE,39,"right","neutral","down","nocue","FAM"
"4","1",92,508,508,TRUE,0,508,TRUE,39,"right","neutral","down","center","FAM"
"4","1",93,697,697,TRUE,0,697,TRUE,37,"left","incongruent","down","center","FAM"
"4","1",94,636,636,TRUE,0,636,TRUE,37,"left","neutral","up","double","FAM"
"4","1",96,601,601,TRUE,0,601,TRUE,37,"left","neutral","down","center","FAM"
"4","1",97,605,605,TRUE,0,605,TRUE,37,"left","congruent","down","center","FAM"
"4","1",98,787,787,TRUE,0,787,TRUE,39,"right","neutral","up","double","FAM"
"4","1",99,552,552,TRUE,0,552,TRUE,39,"right","neutral","down","center","FAM"
"4","1",100,667,667,TRUE,0,667,TRUE,39,"right","incongruent","down","center","FAM"
"4","1",101,638,638,TRUE,0,638,TRUE,37,"left","neutral","down","center","FAM"
"4","1",102,667,667,TRUE,0,667,TRUE,37,"left","neutral","up","nocue","FAM"
"4","1",103,628,628,TRUE,0,628,TRUE,39,"right","incongruent","down","spatial","FAM"
"4","1",104,657,657,TRUE,0,657,TRUE,37,"left","congruent","up","nocue","FAM"
"4","1",105,527,527,TRUE,0,527,TRUE,37,"left","neutral","up","spatial","FAM"
"4","1",106,884,884,TRUE,0,884,TRUE,39,"right","congruent","down","nocue","FAM"
"4","1",107,738,738,TRUE,0,738,TRUE,39,"right","congruent","up","spatial","FAM"
"4","1",108,679,679,TRUE,0,679,TRUE,39,"right","congruent","down","center","FAM"
"4","1",109,653,653,TRUE,0,653,TRUE,37,"left","incongruent","down","double","FAM"
"4","1",110,511,511,TRUE,0,511,TRUE,39,"right","neutral","down","nocue","FAM"
"4","1",111,549,549,TRUE,0,549,TRUE,37,"left","neutral","down","nocue","FAM"
"4","1",112,637,637,TRUE,0,637,TRUE,37,"left","congruent","up","center","FAM"
"4","1",113,567,567,TRUE,0,567,TRUE,39,"right","congruent","up","center","FAM"
"4","1",114,604,604,TRUE,0,604,TRUE,37,"left","congruent","down","nocue","FAM"
"4","1",115,559,559,TRUE,0,559,TRUE,39,"right","neutral","up","center","FAM"
"4","1",116,496,496,TRUE,0,496,TRUE,37,"left","neutral","down","double","FAM"
"4","1",117,614,614,TRUE,0,614,TRUE,39,"right","incongruent","down","double","FAM"
"4","1",119,661,661,TRUE,0,661,TRUE,37,"left","incongruent","down","center","FAM"
"4","1",120,542,542,TRUE,0,542,TRUE,37,"left","neutral","up","center","FAM"
"4","1",121,696,696,TRUE,0,696,TRUE,37,"left","incongruent","up","nocue","FAM"
"4","1",122,597,597,TRUE,0,597,TRUE,39,"right","neutral","down","double","FAM"
"4","1",123,896,896,TRUE,0,896,TRUE,37,"left","congruent","down","double","FAM"
"4","1",124,798,798,TRUE,0,798,TRUE,39,"right","congruent","up","nocue","FAM"
"4","1",125,573,573,TRUE,0,573,TRUE,39,"right","congruent","up","double","FAM"
"4","1",126,579,579,TRUE,0,579,TRUE,39,"right","neutral","up","spatial","FAM"
"4","1",127,697,697,TRUE,0,697,TRUE,37,"left","incongruent","up","double","FAM"
"4","1",128,705,705,TRUE,0,705,TRUE,39,"right","incongruent","down","nocue","FAM"
"4","1",129,604,604,TRUE,0,604,TRUE,37,"left","incongruent","up","spatial","FAM"
"4","1",130,493,493,TRUE,0,493,TRUE,39,"right","neutral","down","spatial","FAM"
"4","1",131,627,627,TRUE,0,627,TRUE,37,"left","incongruent","down","spatial","FAM"
"4","1",132,630,630,TRUE,0,630,TRUE,39,"right","congruent","down","spatial","FAM"
"4","1",133,607,607,TRUE,0,607,TRUE,37,"left","congruent","up","spatial","FAM"
"4","1",134,626,626,TRUE,0,626,TRUE,39,"right","incongruent","up","nocue","FAM"
"4","1",135,552,552,TRUE,0,552,TRUE,39,"right","neutral","up","nocue","FAM"
"4","1",136,721,721,TRUE,0,721,TRUE,37,"left","incongruent","down","nocue","FAM"
"4","1",137,534,534,TRUE,0,534,TRUE,37,"left","congruent","up","double","FAM"
"4","1",138,640,640,TRUE,0,640,TRUE,39,"right","incongruent","up","spatial","FAM"
"4","1",139,708,708,TRUE,0,708,TRUE,39,"right","incongruent","up","center","FAM"
"4","1",140,506,506,TRUE,0,506,TRUE,37,"left","neutral","down","spatial","FAM"
"4","1",141,610,610,TRUE,0,610,TRUE,37,"left","neutral","up","double","FAM"
"4","1",142,723,723,TRUE,0,723,TRUE,37,"left","congruent","down","spatial","FAM"
"4","1",143,535,535,TRUE,0,535,TRUE,37,"left","incongruent","up","center","FAM"
"4","1",144,553,553,TRUE,0,553,TRUE,39,"right","congruent","down","double","FAM"
"4","2",1,792,792,TRUE,0,792,TRUE,39,"right","incongruent","up","spatial","FAM"
"4","2",2,568,568,TRUE,0,568,TRUE,37,"left","congruent","up","nocue","FAM"
"4","2",3,762,762,TRUE,0,762,TRUE,37,"left","neutral","down","nocue","FAM"
"4","2",4,533,533,TRUE,0,533,TRUE,37,"left","congruent","down","spatial","FAM"
"4","2",5,576,576,TRUE,0,576,TRUE,37,"left","neutral","down","double","FAM"
"4","2",6,727,727,TRUE,0,727,TRUE,37,"left","incongruent","up","double","FAM"
"4","2",7,573,573,TRUE,0,573,TRUE,37,"left","neutral","up","center","FAM"
"4","2",8,784,784,TRUE,0,784,TRUE,39,"right","congruent","up","nocue","FAM"
"4","2",9,714,714,TRUE,0,714,TRUE,39,"right","neutral","up","center","FAM"
"4","2",10,677,677,TRUE,0,677,TRUE,39,"right","incongruent","up","double","FAM"
"4","2",11,850,850,TRUE,0,850,TRUE,39,"right","congruent","down","double","FAM"
"4","2",12,633,633,TRUE,0,633,TRUE,37,"left","incongruent","down","center","FAM"
"4","2",13,727,727,TRUE,0,727,TRUE,39,"right","neutral","up","double","FAM"
"4","2",14,607,607,TRUE,0,607,TRUE,37,"left","neutral","down","center","FAM"
"4","2",15,561,561,TRUE,0,561,TRUE,37,"left","neutral","up","spatial","FAM"
"4","2",16,652,652,TRUE,0,652,TRUE,39,"right","neutral","down","center","FAM"
"4","2",17,615,615,TRUE,0,615,TRUE,39,"right","neutral","down","nocue","FAM"
"4","2",18,773,773,TRUE,0,773,TRUE,39,"right","neutral","up","nocue","FAM"
"4","2",19,751,751,TRUE,0,751,TRUE,39,"right","congruent","up","center","FAM"
"4","2",20,700,700,TRUE,0,700,TRUE,37,"left","incongruent","up","center","FAM"
"4","2",21,618,618,TRUE,0,618,TRUE,39,"right","incongruent","down","double","FAM"
"4","2",22,623,623,TRUE,0,623,TRUE,39,"right","incongruent","down","center","FAM"
"4","2",23,697,697,TRUE,0,697,TRUE,39,"right","congruent","down","nocue","FAM"
"4","2",24,586,586,TRUE,0,586,TRUE,39,"right","congruent","down","spatial","FAM"
"4","2",25,546,546,TRUE,0,546,TRUE,37,"left","neutral","down","spatial","FAM"
"4","2",26,660,660,TRUE,0,660,TRUE,39,"right","congruent","up","spatial","FAM"
"4","2",27,817,817,TRUE,0,817,TRUE,37,"left","congruent","up","center","FAM"
"4","2",28,644,644,TRUE,0,644,TRUE,37,"left","congruent","down","double","FAM"
"4","2",29,680,680,TRUE,0,680,TRUE,39,"right","incongruent","up","center","FAM"
"4","2",30,880,880,TRUE,0,880,TRUE,39,"right","incongruent","up","nocue","FAM"
"4","2",31,804,804,TRUE,0,804,TRUE,37,"left","incongruent","down","double","FAM"
"4","2",32,611,611,TRUE,0,611,TRUE,37,"left","congruent","up","spatial","FAM"
"4","2",33,597,597,TRUE,0,597,TRUE,37,"left","congruent","down","center","FAM"
"4","2",34,572,572,TRUE,0,572,TRUE,37,"left","incongruent","down","spatial","FAM"
"4","2",35,619,619,TRUE,0,619,TRUE,39,"right","incongruent","down","spatial","FAM"
"4","2",36,706,706,TRUE,0,706,TRUE,39,"right","neutral","up","spatial","FAM"
"4","2",37,540,540,TRUE,0,540,TRUE,39,"right","congruent","down","center","FAM"
"4","2",38,568,568,TRUE,0,568,TRUE,37,"left","neutral","up","nocue","FAM"
"4","2",39,554,554,TRUE,0,554,TRUE,37,"left","incongruent","down","nocue","FAM"
"4","2",40,517,517,TRUE,0,517,TRUE,39,"right","neutral","down","spatial","FAM"
"4","2",41,690,690,TRUE,0,690,TRUE,39,"right","incongruent","down","nocue","FAM"
"4","2",42,661,661,TRUE,0,661,TRUE,37,"left","congruent","up","double","FAM"
"4","2",43,584,584,TRUE,0,584,TRUE,39,"right","neutral","down","double","FAM"
"4","2",44,604,604,TRUE,0,604,TRUE,37,"left","incongruent","up","nocue","FAM"
"4","2",45,505,505,TRUE,0,505,TRUE,37,"left","neutral","up","double","FAM"
"4","2",46,552,552,TRUE,0,552,TRUE,37,"left","congruent","down","nocue","FAM"
"4","2",47,651,651,TRUE,0,651,TRUE,39,"right","congruent","up","double","FAM"
"4","2",48,605,605,TRUE,0,605,TRUE,37,"left","incongruent","up","spatial","FAM"
"4","2",49,712,712,TRUE,0,712,TRUE,39,"right","congruent","up","double","FAM"
"4","2",50,535,535,TRUE,0,535,TRUE,37,"left","neutral","up","nocue","FAM"
"4","2",51,508,508,TRUE,0,508,TRUE,37,"left","congruent","up","center","FAM"
"4","2",52,572,572,TRUE,0,572,TRUE,37,"left","incongruent","down","spatial","FAM"
"4","2",53,595,595,TRUE,0,595,TRUE,39,"right","neutral","down","center","FAM"
"4","2",54,486,486,TRUE,0,486,TRUE,39,"right","neutral","up","spatial","FAM"
"4","2",55,533,533,TRUE,0,533,TRUE,39,"right","neutral","up","nocue","FAM"
"4","2",56,486,486,TRUE,0,486,TRUE,39,"right","neutral","up","double","FAM"
"4","2",58,616,616,TRUE,0,616,TRUE,37,"left","incongruent","up","spatial","FAM"
"4","2",59,631,631,TRUE,0,631,TRUE,37,"left","incongruent","up","nocue","FAM"
"4","2",60,635,635,TRUE,0,635,TRUE,37,"left","congruent","down","nocue","FAM"
"4","2",61,537,537,TRUE,0,537,TRUE,37,"left","congruent","down","spatial","FAM"
"4","2",63,602,602,TRUE,0,602,TRUE,37,"left","neutral","down","double","FAM"
"4","2",64,686,686,TRUE,0,686,TRUE,39,"right","incongruent","down","double","FAM"
"4","2",65,636,636,TRUE,0,636,TRUE,39,"right","congruent","down","spatial","FAM"
"4","2",66,711,711,TRUE,0,711,TRUE,37,"left","congruent","up","spatial","FAM"
"4","2",67,891,891,TRUE,0,891,TRUE,39,"right","neutral","down","nocue","FAM"
"4","2",68,641,641,TRUE,0,641,TRUE,37,"left","congruent","up","double","FAM"
"4","2",69,603,603,TRUE,0,603,TRUE,37,"left","neutral","down","nocue","FAM"
"4","2",70,566,566,TRUE,0,566,TRUE,37,"left","neutral","down","spatial","FAM"
"4","2",71,566,566,TRUE,0,566,TRUE,37,"left","neutral","up","spatial","FAM"
"4","2",72,573,573,TRUE,0,573,TRUE,39,"right","neutral","down","double","FAM"
"4","2",73,646,646,TRUE,0,646,TRUE,37,"left","incongruent","down","double","FAM"
"4","2",74,692,692,TRUE,0,692,TRUE,39,"right","incongruent","up","nocue","FAM"
"4","2",76,604,604,TRUE,0,604,TRUE,37,"left","incongruent","up","center","FAM"
"4","2",77,694,694,TRUE,0,694,TRUE,39,"right","neutral","up","center","FAM"
"4","2",78,666,666,TRUE,0,666,TRUE,39,"right","neutral","down","spatial","FAM"
"4","2",79,799,799,TRUE,0,799,TRUE,37,"left","incongruent","down","nocue","FAM"
"4","2",80,605,605,TRUE,0,605,TRUE,37,"left","neutral","up","double","FAM"
"4","2",81,647,647,TRUE,0,647,TRUE,37,"left","neutral","down","center","FAM"
"4","2",82,749,749,TRUE,0,749,TRUE,37,"left","congruent","down","double","FAM"
"4","2",83,620,620,TRUE,0,620,TRUE,37,"left","neutral","up","center","FAM"
"4","2",84,680,680,TRUE,0,680,TRUE,39,"right","incongruent","down","nocue","FAM"
"4","2",85,778,778,TRUE,0,778,TRUE,39,"right","congruent","up","center","FAM"
"4","2",86,671,671,TRUE,0,671,TRUE,39,"right","congruent","down","double","FAM"
"4","2",87,771,771,TRUE,0,771,TRUE,37,"left","incongruent","up","double","FAM"
"4","2",88,624,624,TRUE,0,624,TRUE,39,"right","incongruent","up","center","FAM"
"4","2",89,657,657,TRUE,0,657,TRUE,39,"right","incongruent","up","double","FAM"
"4","2",90,612,612,TRUE,0,612,TRUE,39,"right","incongruent","up","spatial","FAM"
"4","2",91,810,810,TRUE,0,810,TRUE,37,"left","congruent","up","nocue","FAM"
"4","2",92,691,691,TRUE,0,691,TRUE,39,"right","incongruent","down","spatial","FAM"
"4","2",93,646,646,TRUE,0,646,TRUE,39,"right","incongruent","down","center","FAM"
"4","2",94,640,640,TRUE,0,640,TRUE,37,"left","congruent","down","center","FAM"
"4","2",95,652,652,TRUE,0,652,TRUE,39,"right","congruent","up","spatial","FAM"
"4","2",96,568,568,TRUE,0,568,TRUE,37,"left","incongruent","down","center","FAM"
"4","2",97,786,786,TRUE,0,786,TRUE,39,"right","congruent","up","center","FAM"
"4","2",98,590,590,TRUE,0,590,TRUE,39,"right","congruent","up","double","FAM"
"4","2",99,602,602,TRUE,0,602,TRUE,39,"right","incongruent","up","double","FAM"
"4","2",100,520,520,TRUE,0,520,TRUE,39,"right","neutral","down","spatial","FAM"
"4","2",101,635,635,TRUE,0,635,TRUE,37,"left","congruent","down","nocue","FAM"
"4","2",102,508,508,TRUE,0,508,TRUE,39,"right","congruent","up","nocue","FAM"
"4","2",103,714,714,TRUE,0,714,TRUE,37,"left","incongruent","down","center","FAM"
"4","2",104,605,605,TRUE,0,605,TRUE,37,"left","incongruent","down","double","FAM"
"4","2",105,547,547,TRUE,0,547,TRUE,39,"right","neutral","down","double","FAM"
"4","2",106,567,567,TRUE,0,567,TRUE,37,"left","neutral","down","spatial","FAM"
"4","2",107,658,658,TRUE,0,658,TRUE,37,"left","incongruent","up","spatial","FAM"
"4","2",108,576,576,TRUE,0,576,TRUE,37,"left","congruent","up","double","FAM"
"4","2",110,653,653,TRUE,0,653,TRUE,39,"right","incongruent","up","spatial","FAM"
"4","2",111,588,588,TRUE,0,588,TRUE,37,"left","neutral","up","nocue","FAM"
"4","2",112,691,691,TRUE,0,691,TRUE,39,"right","neutral","up","center","FAM"
"4","2",113,582,582,TRUE,0,582,TRUE,37,"left","neutral","up","double","FAM"
"4","2",114,612,612,TRUE,0,612,TRUE,37,"left","congruent","down","center","FAM"
"4","2",115,685,685,TRUE,0,685,TRUE,39,"right","incongruent","down","spatial","FAM"
"4","2",116,620,620,TRUE,0,620,TRUE,37,"left","congruent","up","nocue","FAM"
"4","2",117,665,665,TRUE,0,665,TRUE,39,"right","neutral","up","spatial","FAM"
"4","2",118,579,579,TRUE,0,579,TRUE,37,"left","neutral","up","center","FAM"
"4","2",119,665,665,TRUE,0,665,TRUE,37,"left","incongruent","down","spatial","FAM"
"4","2",120,655,655,TRUE,0,655,TRUE,39,"right","incongruent","up","nocue","FAM"
"4","2",121,546,546,TRUE,0,546,TRUE,37,"left","neutral","down","double","FAM"
"4","2",122,650,650,TRUE,0,650,TRUE,39,"right","congruent","down","nocue","FAM"
"4","2",123,717,717,TRUE,0,717,TRUE,37,"left","incongruent","up","center","FAM"
"4","2",124,570,570,TRUE,0,570,TRUE,39,"right","neutral","down","center","FAM"
"4","2",125,624,624,TRUE,0,624,TRUE,37,"left","congruent","up","center","FAM"
"4","2",126,635,635,TRUE,0,635,TRUE,37,"left","congruent","down","spatial","FAM"
"4","2",127,757,757,TRUE,0,757,TRUE,39,"right","incongruent","down","double","FAM"
"4","2",128,709,709,TRUE,0,709,TRUE,37,"left","incongruent","down","nocue","FAM"
"4","2",129,622,622,TRUE,0,622,TRUE,37,"left","neutral","up","spatial","FAM"
"4","2",130,692,692,TRUE,0,692,TRUE,39,"right","incongruent","down","center","FAM"
"4","2",131,577,577,TRUE,0,577,TRUE,39,"right","congruent","up","spatial","FAM"
"4","2",132,634,634,TRUE,0,634,TRUE,39,"right","neutral","down","nocue","FAM"
"4","2",133,708,708,TRUE,0,708,TRUE,37,"left","incongruent","up","nocue","FAM"
"4","2",134,591,591,TRUE,0,591,TRUE,39,"right","congruent","down","spatial","FAM"
"4","2",135,737,737,TRUE,0,737,TRUE,39,"right","congruent","down","center","FAM"
"4","2",136,673,673,TRUE,0,673,TRUE,37,"left","incongruent","up","double","FAM"
"4","2",137,624,624,TRUE,0,624,TRUE,37,"left","neutral","down","center","FAM"
"4","2",138,719,719,TRUE,0,719,TRUE,39,"right","congruent","down","double","FAM"
"4","2",139,702,702,TRUE,0,702,TRUE,39,"right","incongruent","up","center","FAM"
"4","2",140,876,876,TRUE,0,876,TRUE,37,"left","congruent","up","spatial","FAM"
"4","2",141,638,638,TRUE,0,638,TRUE,39,"right","neutral","up","double","FAM"
"4","2",142,541,541,TRUE,0,541,TRUE,37,"left","neutral","down","nocue","FAM"
"4","2",143,638,638,TRUE,0,638,TRUE,39,"right","incongruent","down","nocue","FAM"
"4","2",144,628,628,TRUE,0,628,TRUE,37,"left","congruent","down","double","FAM"
"5","1",1,598,598,TRUE,0,598,TRUE,39,"right","incongruent","up","center","Reading"
"5","1",2,658,658,TRUE,0,658,TRUE,37,"left","incongruent","down","double","Reading"
"5","1",3,594,594,TRUE,0,594,TRUE,39,"right","neutral","down","double","Reading"
"5","1",4,517,517,TRUE,0,517,TRUE,37,"left","congruent","up","nocue","Reading"
"5","1",5,600,600,TRUE,0,600,TRUE,37,"left","congruent","up","double","Reading"
"5","1",6,625,625,TRUE,0,625,TRUE,37,"left","neutral","down","center","Reading"
"5","1",7,566,566,TRUE,0,566,TRUE,39,"right","congruent","down","double","Reading"
"5","1",8,546,546,TRUE,0,546,TRUE,39,"right","congruent","down","center","Reading"
"5","1",9,583,583,TRUE,0,583,TRUE,37,"left","neutral","up","double","Reading"
"5","1",10,719,719,TRUE,0,719,TRUE,37,"left","incongruent","down","center","Reading"
"5","1",11,517,517,TRUE,0,517,TRUE,37,"left","congruent","down","nocue","Reading"
"5","1",12,459,459,TRUE,0,459,TRUE,37,"left","congruent","down","spatial","Reading"
"5","1",13,563,563,TRUE,0,563,TRUE,37,"left","incongruent","down","spatial","Reading"
"5","1",14,608,608,TRUE,0,608,TRUE,39,"right","incongruent","up","spatial","Reading"
"5","1",15,600,600,TRUE,0,600,TRUE,39,"right","incongruent","down","nocue","Reading"
"5","1",16,618,618,TRUE,0,618,TRUE,39,"right","incongruent","down","center","Reading"
"5","1",17,511,511,TRUE,0,511,TRUE,37,"left","neutral","down","double","Reading"
"5","1",18,405,405,TRUE,0,405,TRUE,39,"right","congruent","down","spatial","Reading"
"5","1",19,503,503,TRUE,0,503,TRUE,39,"right","neutral","up","double","Reading"
"5","1",20,601,601,TRUE,0,601,TRUE,39,"right","incongruent","up","double","Reading"
"5","1",21,611,611,TRUE,0,611,TRUE,37,"left","incongruent","up","center","Reading"
"5","1",22,418,418,TRUE,0,418,TRUE,39,"right","neutral","up","spatial","Reading"
"5","1",23,481,481,TRUE,0,481,TRUE,37,"left","incongruent","up","spatial","Reading"
"5","1",24,630,630,TRUE,0,630,TRUE,39,"right","incongruent","down","double","Reading"
"5","1",25,517,517,TRUE,0,517,TRUE,39,"right","congruent","up","spatial","Reading"
"5","1",26,636,636,TRUE,0,636,TRUE,39,"right","neutral","down","nocue","Reading"
"5","1",27,567,567,TRUE,0,567,TRUE,37,"left","incongruent","up","double","Reading"
"5","1",28,443,443,TRUE,0,443,TRUE,37,"left","neutral","up","nocue","Reading"
"5","1",29,566,566,TRUE,0,566,TRUE,39,"right","congruent","down","nocue","Reading"
"5","1",30,437,437,TRUE,0,437,TRUE,39,"right","neutral","up","nocue","Reading"
"5","1",31,385,385,TRUE,0,385,TRUE,39,"right","congruent","up","center","Reading"
"5","1",32,417,417,TRUE,0,417,TRUE,37,"left","neutral","up","spatial","Reading"
"5","1",33,555,555,TRUE,0,555,TRUE,39,"right","incongruent","up","nocue","Reading"
"5","1",34,481,481,TRUE,0,481,TRUE,37,"left","congruent","up","center","Reading"
"5","1",35,431,431,TRUE,0,431,TRUE,37,"left","neutral","up","center","Reading"
"5","1",36,461,461,TRUE,0,461,TRUE,39,"right","congruent","up","nocue","Reading"
"5","1",37,407,407,TRUE,0,407,TRUE,37,"left","congruent","up","spatial","Reading"
"5","1",38,380,380,TRUE,0,380,TRUE,39,"right","congruent","up","double","Reading"
"5","1",39,582,582,TRUE,0,582,TRUE,37,"left","congruent","down","double","Reading"
"5","1",40,587,587,TRUE,0,587,TRUE,37,"left","neutral","down","nocue","Reading"
"5","1",41,407,407,TRUE,0,407,TRUE,39,"right","neutral","up","center","Reading"
"5","1",42,626,626,TRUE,0,626,TRUE,37,"left","congruent","down","center","Reading"
"5","1",44,492,492,TRUE,0,492,TRUE,39,"right","neutral","down","spatial","Reading"
"5","1",45,616,616,TRUE,0,616,TRUE,37,"left","neutral","down","spatial","Reading"
"5","1",46,548,548,TRUE,0,548,TRUE,37,"left","incongruent","up","nocue","Reading"
"5","1",47,616,616,TRUE,0,616,TRUE,39,"right","incongruent","down","spatial","Reading"
"5","1",48,626,626,TRUE,0,626,TRUE,37,"left","incongruent","down","nocue","Reading"
"5","1",49,587,587,TRUE,0,587,TRUE,39,"right","congruent","down","double","Reading"
"5","1",50,638,638,TRUE,0,638,TRUE,37,"left","neutral","up","spatial","Reading"
"5","1",51,634,634,TRUE,0,634,TRUE,37,"left","incongruent","down","spatial","Reading"
"5","1",52,565,565,TRUE,0,565,TRUE,37,"left","neutral","up","center","Reading"
"5","1",53,574,574,TRUE,0,574,TRUE,39,"right","congruent","up","nocue","Reading"
"5","1",54,503,503,TRUE,0,503,TRUE,39,"right","neutral","up","nocue","Reading"
"5","1",55,541,541,TRUE,0,541,TRUE,39,"right","congruent","up","center","Reading"
"5","1",56,612,612,TRUE,0,612,TRUE,37,"left","neutral","down","spatial","Reading"
"5","1",57,500,500,TRUE,0,500,TRUE,37,"left","congruent","up","double","Reading"
"5","1",58,538,538,TRUE,0,538,TRUE,39,"right","incongruent","up","center","Reading"
"5","1",59,511,511,TRUE,0,511,TRUE,37,"left","incongruent","up","double","Reading"
"5","1",60,491,491,TRUE,0,491,TRUE,37,"left","congruent","up","nocue","Reading"
"5","1",61,700,700,TRUE,0,700,TRUE,39,"right","incongruent","down","nocue","Reading"
"5","1",62,449,449,TRUE,0,449,TRUE,37,"left","incongruent","up","spatial","Reading"
"5","1",63,624,624,TRUE,0,624,TRUE,39,"right","incongruent","down","double","Reading"
"5","1",64,433,433,TRUE,0,433,TRUE,39,"right","neutral","up","spatial","Reading"
"5","1",65,404,404,TRUE,0,404,TRUE,39,"right","congruent","up","double","Reading"
"5","1",66,682,682,TRUE,0,682,TRUE,37,"left","congruent","down","spatial","Reading"
"5","1",67,479,479,TRUE,0,479,TRUE,39,"right","incongruent","up","spatial","Reading"
"5","1",68,603,603,TRUE,0,603,TRUE,39,"right","incongruent","down","center","Reading"
"5","1",69,419,419,TRUE,0,419,TRUE,39,"right","incongruent","up","double","Reading"
"5","1",70,552,552,TRUE,0,552,TRUE,37,"left","incongruent","up","center","Reading"
"5","1",71,579,579,TRUE,0,579,TRUE,39,"right","neutral","down","nocue","Reading"
"5","1",72,554,554,TRUE,0,554,TRUE,39,"right","congruent","down","nocue","Reading"
"5","1",73,412,412,TRUE,0,412,TRUE,37,"left","neutral","up","double","Reading"
"5","1",74,410,410,TRUE,0,410,TRUE,39,"right","neutral","up","double","Reading"
"5","1",75,468,468,TRUE,0,468,TRUE,39,"right","congruent","down","spatial","Reading"
"5","1",76,445,445,TRUE,0,445,TRUE,39,"right","congruent","down","center","Reading"
"5","1",77,652,652,TRUE,0,652,TRUE,37,"left","incongruent","down","nocue","Reading"
"5","1",78,630,630,TRUE,0,630,TRUE,37,"left","congruent","down","center","Reading"
"5","1",79,475,475,TRUE,0,475,TRUE,39,"right","neutral","down","spatial","Reading"
"5","1",80,589,589,TRUE,0,589,TRUE,39,"right","neutral","down","double","Reading"
"5","1",81,592,592,TRUE,0,592,TRUE,39,"right","neutral","down","center","Reading"
"5","1",82,676,676,TRUE,0,676,TRUE,37,"left","incongruent","down","center","Reading"
"5","1",83,480,480,TRUE,0,480,TRUE,39,"right","congruent","up","spatial","Reading"
"5","1",84,622,622,TRUE,0,622,TRUE,37,"left","incongruent","down","double","Reading"
"5","1",85,664,664,TRUE,0,664,TRUE,37,"left","incongruent","up","nocue","Reading"
"5","1",86,749,749,TRUE,0,749,TRUE,37,"left","congruent","up","center","Reading"
"5","1",87,651,651,TRUE,0,651,TRUE,37,"left","neutral","down","nocue","Reading"
"5","1",88,483,483,TRUE,0,483,TRUE,37,"left","congruent","up","spatial","Reading"
"5","1",89,612,612,TRUE,0,612,TRUE,37,"left","neutral","up","nocue","Reading"
"5","1",90,596,596,TRUE,0,596,TRUE,37,"left","neutral","down","double","Reading"
"5","1",91,561,561,TRUE,0,561,TRUE,37,"left","congruent","down","double","Reading"
"5","1",92,664,664,TRUE,0,664,TRUE,37,"left","congruent","down","nocue","Reading"
"5","1",93,693,693,TRUE,0,693,TRUE,39,"right","incongruent","up","nocue","Reading"
"5","1",94,551,551,TRUE,0,551,TRUE,39,"right","incongruent","down","spatial","Reading"
"5","1",95,583,583,TRUE,0,583,TRUE,39,"right","neutral","up","center","Reading"
"5","1",96,604,604,TRUE,0,604,TRUE,37,"left","neutral","down","center","Reading"
"5","1",97,573,573,TRUE,0,573,TRUE,37,"left","congruent","down","center","Reading"
"5","1",98,574,574,TRUE,0,574,TRUE,39,"right","congruent","up","center","Reading"
"5","1",99,643,643,TRUE,0,643,TRUE,37,"left","incongruent","down","nocue","Reading"
"5","1",100,587,587,TRUE,0,587,TRUE,39,"right","neutral","down","spatial","Reading"
"5","1",101,575,575,TRUE,0,575,TRUE,37,"left","incongruent","up","double","Reading"
"5","1",102,571,571,TRUE,0,571,TRUE,39,"right","incongruent","up","spatial","Reading"
"5","1",103,745,745,TRUE,0,745,TRUE,37,"left","congruent","down","nocue","Reading"
"5","1",104,601,601,TRUE,0,601,TRUE,37,"left","congruent","up","center","Reading"
"5","1",105,611,611,TRUE,0,611,TRUE,37,"left","incongruent","up","center","Reading"
"5","1",106,619,619,TRUE,0,619,TRUE,39,"right","incongruent","up","nocue","Reading"
"5","1",107,539,539,TRUE,0,539,TRUE,39,"right","neutral","up","center","Reading"
"5","1",108,700,700,TRUE,0,700,TRUE,39,"right","incongruent","down","nocue","Reading"
"5","1",109,597,597,TRUE,0,597,TRUE,37,"left","neutral","down","double","Reading"
"5","1",110,569,569,TRUE,0,569,TRUE,39,"right","incongruent","down","double","Reading"
"5","1",111,473,473,TRUE,0,473,TRUE,39,"right","neutral","up","nocue","Reading"
"5","1",112,605,605,TRUE,0,605,TRUE,37,"left","neutral","up","center","Reading"
"5","1",113,597,597,TRUE,0,597,TRUE,39,"right","neutral","down","nocue","Reading"
"5","1",114,646,646,TRUE,0,646,TRUE,37,"left","neutral","down","nocue","Reading"
"5","1",115,444,444,TRUE,0,444,TRUE,39,"right","incongruent","up","double","Reading"
"5","1",116,457,457,TRUE,0,457,TRUE,39,"right","congruent","up","spatial","Reading"
"5","1",117,597,597,TRUE,0,597,TRUE,39,"right","incongruent","down","spatial","Reading"
"5","1",118,453,453,TRUE,0,453,TRUE,37,"left","congruent","up","double","Reading"
"5","1",119,611,611,TRUE,0,611,TRUE,37,"left","neutral","down","spatial","Reading"
"5","1",120,572,572,TRUE,0,572,TRUE,37,"left","incongruent","up","spatial","Reading"
"5","1",121,638,638,TRUE,0,638,TRUE,39,"right","incongruent","up","center","Reading"
