"rt","key_press","block_duration","possible_responses","stim_duration","exp_stage","correct","correct_response","flanker_middle_direction","flanker_type","flanker_location","cue","trial_num","p","t","condition","experience","current","breath","group"
843,39,843,"37,39",843,"test","true",39,"right","congruent","down","center",1,"10","1","Control","Low","Low","HIgh","Reading"
880,39,880,"37,39",880,"test","true",39,"right","congruent","down","spatial",2,"10","1","Control","Low","Low","HIgh","Reading"
740,37,740,"37,39",740,"test","true",37,"left","congruent","down","center",3,"10","1","Control","Low","Low","HIgh","Reading"
775,39,775,"37,39",775,"test","true",39,"right","incongruent","down","center",4,"10","1","Control","Low","Low","HIgh","Reading"
864,37,864,"37,39",864,"test","true",37,"left","congruent","up","nocue",5,"10","1","Control","Low","Low","HIgh","Reading"
1040,37,1040,"37,39",1040,"test","true",37,"left","incongruent","up","double",6,"10","1","Control","Low","Low","HIgh","Reading"
834,39,834,"37,39",834,"test","true",39,"right","congruent","down","nocue",7,"10","1","Control","Low","Low","HIgh","Reading"
756,37,756,"37,39",756,"test","true",37,"left","neutral","up","double",8,"10","1","Control","Low","Low","HIgh","Reading"
811,37,811,"37,39",811,"test","true",37,"left","incongruent","up","nocue",9,"10","1","Control","Low","Low","HIgh","Reading"
629,37,629,"37,39",629,"test","true",37,"left","congruent","up","center",10,"10","1","Control","Low","Low","HIgh","Reading"
859,37,859,"37,39",859,"test","true",37,"left","incongruent","down","spatial",11,"10","1","Control","Low","Low","HIgh","Reading"
706,37,706,"37,39",706,"test","true",37,"left","incongruent","up","spatial",12,"10","1","Control","Low","Low","HIgh","Reading"
743,37,743,"37,39",743,"test","true",37,"left","neutral","up","spatial",13,"10","1","Control","Low","Low","HIgh","Reading"
896,39,896,"37,39",896,"test","true",39,"right","incongruent","up","double",14,"10","1","Control","Low","Low","HIgh","Reading"
849,37,849,"37,39",849,"test","true",37,"left","incongruent","up","center",15,"10","1","Control","Low","Low","HIgh","Reading"
839,39,839,"37,39",839,"test","true",39,"right","congruent","up","double",16,"10","1","Control","Low","Low","HIgh","Reading"
1238,39,1238,"37,39",1238,"test","true",39,"right","neutral","down","nocue",17,"10","1","Control","Low","Low","HIgh","Reading"
749,39,749,"37,39",749,"test","true",39,"right","neutral","up","center",18,"10","1","Control","Low","Low","HIgh","Reading"
754,37,754,"37,39",754,"test","true",37,"left","congruent","down","double",19,"10","1","Control","Low","Low","HIgh","Reading"
851,37,851,"37,39",851,"test","true",37,"left","neutral","down","center",20,"10","1","Control","Low","Low","HIgh","Reading"
723,37,723,"37,39",723,"test","true",37,"left","neutral","down","spatial",21,"10","1","Control","Low","Low","HIgh","Reading"
999,39,999,"37,39",999,"test","true",39,"right","incongruent","down","double",22,"10","1","Control","Low","Low","HIgh","Reading"
914,39,914,"37,39",914,"test","true",39,"right","incongruent","up","nocue",23,"10","1","Control","Low","Low","HIgh","Reading"
1073,37,1073,"37,39",1073,"test","true",37,"left","neutral","down","nocue",24,"10","1","Control","Low","Low","HIgh","Reading"
1005,39,1005,"37,39",1005,"test","true",39,"right","incongruent","up","center",25,"10","1","Control","Low","Low","HIgh","Reading"
856,37,856,"37,39",856,"test","true",37,"left","incongruent","down","double",26,"10","1","Control","Low","Low","HIgh","Reading"
813,39,813,"37,39",813,"test","true",39,"right","congruent","up","nocue",27,"10","1","Control","Low","Low","HIgh","Reading"
910,39,910,"37,39",910,"test","true",39,"right","congruent","up","spatial",28,"10","1","Control","Low","Low","HIgh","Reading"
836,37,836,"37,39",836,"test","true",37,"left","neutral","up","nocue",29,"10","1","Control","Low","Low","HIgh","Reading"
985,39,985,"37,39",985,"test","true",39,"right","neutral","up","spatial",30,"10","1","Control","Low","Low","HIgh","Reading"
747,39,747,"37,39",747,"test","true",39,"right","congruent","down","double",31,"10","1","Control","Low","Low","HIgh","Reading"
820,39,820,"37,39",820,"test","true",39,"right","incongruent","down","spatial",32,"10","1","Control","Low","Low","HIgh","Reading"
819,37,819,"37,39",819,"test","true",37,"left","congruent","up","double",33,"10","1","Control","Low","Low","HIgh","Reading"
884,37,884,"37,39",884,"test","true",37,"left","congruent","down","nocue",34,"10","1","Control","Low","Low","HIgh","Reading"
651,37,651,"37,39",651,"test","true",37,"left","neutral","down","double",35,"10","1","Control","Low","Low","HIgh","Reading"
1051,39,1051,"37,39",1051,"test","true",39,"right","neutral","down","center",36,"10","1","Control","Low","Low","HIgh","Reading"
750,39,750,"37,39",750,"test","true",39,"right","neutral","down","spatial",37,"10","1","Control","Low","Low","HIgh","Reading"
811,37,811,"37,39",811,"test","true",37,"left","neutral","up","center",38,"10","1","Control","Low","Low","HIgh","Reading"
1170,39,1170,"37,39",1170,"test","true",39,"right","incongruent","down","nocue",39,"10","1","Control","Low","Low","HIgh","Reading"
808,39,808,"37,39",808,"test","true",39,"right","incongruent","up","spatial",40,"10","1","Control","Low","Low","HIgh","Reading"
794,37,794,"37,39",794,"test","true",37,"left","congruent","down","spatial",41,"10","1","Control","Low","Low","HIgh","Reading"
906,37,906,"37,39",906,"test","true",37,"left","incongruent","down","nocue",42,"10","1","Control","Low","Low","HIgh","Reading"
877,39,877,"37,39",877,"test","true",39,"right","congruent","up","center",43,"10","1","Control","Low","Low","HIgh","Reading"
749,39,749,"37,39",749,"test","true",39,"right","neutral","down","double",44,"10","1","Control","Low","Low","HIgh","Reading"
880,37,880,"37,39",880,"test","true",37,"left","incongruent","down","center",45,"10","1","Control","Low","Low","HIgh","Reading"
1198,39,1198,"37,39",1198,"test","true",39,"right","neutral","up","double",46,"10","1","Control","Low","Low","HIgh","Reading"
699,39,699,"37,39",699,"test","true",39,"right","neutral","up","nocue",47,"10","1","Control","Low","Low","HIgh","Reading"
792,37,792,"37,39",792,"test","true",37,"left","congruent","up","spatial",48,"10","1","Control","Low","Low","HIgh","Reading"
990,39,990,"37,39",990,"test","true",39,"right","incongruent","up","double",49,"10","1","Control","Low","Low","HIgh","Reading"
949,39,949,"37,39",949,"test","true",39,"right","neutral","up","center",50,"10","1","Control","Low","Low","HIgh","Reading"
902,37,902,"37,39",902,"test","true",37,"left","congruent","up","double",51,"10","1","Control","Low","Low","HIgh","Reading"
754,37,754,"37,39",754,"test","true",37,"left","congruent","up","center",52,"10","1","Control","Low","Low","HIgh","Reading"
582,37,582,"37,39",582,"test","true",37,"left","congruent","up","spatial",53,"10","1","Control","Low","Low","HIgh","Reading"
942,39,942,"37,39",942,"test","true",39,"right","incongruent","down","spatial",54,"10","1","Control","Low","Low","HIgh","Reading"
926,39,926,"37,39",926,"test","true",39,"right","neutral","up","nocue",55,"10","1","Control","Low","Low","HIgh","Reading"
895,39,895,"37,39",895,"test","true",39,"right","incongruent","up","nocue",56,"10","1","Control","Low","Low","HIgh","Reading"
1009,37,1009,"37,39",1009,"test","true",37,"left","congruent","down","center",57,"10","1","Control","Low","Low","HIgh","Reading"
1180,37,1180,"37,39",1180,"test","true",37,"left","congruent","down","double",58,"10","1","Control","Low","Low","HIgh","Reading"
1197,37,1197,"37,39",1197,"test","true",37,"left","incongruent","up","double",59,"10","1","Control","Low","Low","HIgh","Reading"
1220,39,1220,"37,39",1220,"test","true",39,"right","congruent","up","center",60,"10","1","Control","Low","Low","HIgh","Reading"
1130,39,1130,"37,39",1130,"test","true",39,"right","incongruent","down","double",61,"10","1","Control","Low","Low","HIgh","Reading"
743,37,743,"37,39",743,"test","true",37,"left","incongruent","up","center",62,"10","1","Control","Low","Low","HIgh","Reading"
1186,39,1186,"37,39",1186,"test","true",39,"right","incongruent","down","nocue",63,"10","1","Control","Low","Low","HIgh","Reading"
864,39,864,"37,39",864,"test","true",39,"right","neutral","down","center",64,"10","1","Control","Low","Low","HIgh","Reading"
779,37,779,"37,39",779,"test","true",37,"left","neutral","up","double",65,"10","1","Control","Low","Low","HIgh","Reading"
1042,37,1042,"37,39",1042,"test","true",37,"left","neutral","down","center",66,"10","1","Control","Low","Low","HIgh","Reading"
1151,37,1151,"37,39",1151,"test","true",37,"left","incongruent","down","spatial",67,"10","1","Control","Low","Low","HIgh","Reading"
1196,39,1196,"37,39",1196,"test","true",39,"right","neutral","down","nocue",68,"10","1","Control","Low","Low","HIgh","Reading"
827,37,827,"37,39",827,"test","true",37,"left","neutral","down","double",70,"10","1","Control","Low","Low","HIgh","Reading"
817,39,817,"37,39",817,"test","true",39,"right","neutral","up","double",71,"10","1","Control","Low","Low","HIgh","Reading"
857,39,857,"37,39",857,"test","true",39,"right","incongruent","up","center",72,"10","1","Control","Low","Low","HIgh","Reading"
864,37,864,"37,39",864,"test","true",37,"left","neutral","down","spatial",73,"10","1","Control","Low","Low","HIgh","Reading"
864,39,864,"37,39",864,"test","true",39,"right","congruent","down","double",74,"10","1","Control","Low","Low","HIgh","Reading"
802,39,802,"37,39",802,"test","true",39,"right","incongruent","up","spatial",75,"10","1","Control","Low","Low","HIgh","Reading"
954,39,954,"37,39",954,"test","true",39,"right","neutral","down","double",76,"10","1","Control","Low","Low","HIgh","Reading"
933,39,933,"37,39",933,"test","true",39,"right","congruent","down","center",77,"10","1","Control","Low","Low","HIgh","Reading"
539,39,539,"37,39",539,"test","true",39,"right","neutral","down","spatial",78,"10","1","Control","Low","Low","HIgh","Reading"
1016,37,1016,"37,39",1016,"test","true",37,"left","incongruent","down","center",79,"10","1","Control","Low","Low","HIgh","Reading"
865,37,865,"37,39",865,"test","true",37,"left","congruent","up","nocue",80,"10","1","Control","Low","Low","HIgh","Reading"
675,37,675,"37,39",675,"test","true",37,"left","incongruent","up","spatial",81,"10","1","Control","Low","Low","HIgh","Reading"
924,37,924,"37,39",924,"test","true",37,"left","incongruent","down","nocue",82,"10","1","Control","Low","Low","HIgh","Reading"
1120,39,1120,"37,39",1120,"test","true",39,"right","incongruent","down","center",83,"10","1","Control","Low","Low","HIgh","Reading"
812,39,812,"37,39",812,"test","true",39,"right","congruent","down","spatial",84,"10","1","Control","Low","Low","HIgh","Reading"
1071,37,1071,"37,39",1071,"test","true",37,"left","incongruent","down","double",85,"10","1","Control","Low","Low","HIgh","Reading"
748,37,748,"37,39",748,"test","true",37,"left","neutral","up","spatial",86,"10","1","Control","Low","Low","HIgh","Reading"
1196,37,1196,"37,39",1196,"test","true",37,"left","congruent","down","nocue",87,"10","1","Control","Low","Low","HIgh","Reading"
910,39,910,"37,39",910,"test","true",39,"right","neutral","up","spatial",88,"10","1","Control","Low","Low","HIgh","Reading"
832,39,832,"37,39",832,"test","true",39,"right","congruent","up","double",89,"10","1","Control","Low","Low","HIgh","Reading"
727,37,727,"37,39",727,"test","true",37,"left","neutral","up","center",90,"10","1","Control","Low","Low","HIgh","Reading"
668,37,668,"37,39",668,"test","true",37,"left","incongruent","up","nocue",91,"10","1","Control","Low","Low","HIgh","Reading"
1189,37,1189,"37,39",1189,"test","true",37,"left","congruent","down","spatial",92,"10","1","Control","Low","Low","HIgh","Reading"
796,37,796,"37,39",796,"test","true",37,"left","neutral","up","nocue",93,"10","1","Control","Low","Low","HIgh","Reading"
814,37,814,"37,39",814,"test","true",37,"left","neutral","down","nocue",94,"10","1","Control","Low","Low","HIgh","Reading"
1202,39,1202,"37,39",1202,"test","true",39,"right","congruent","down","nocue",95,"10","1","Control","Low","Low","HIgh","Reading"
819,39,819,"37,39",819,"test","true",39,"right","congruent","up","spatial",96,"10","1","Control","Low","Low","HIgh","Reading"
840,39,840,"37,39",840,"test","true",39,"right","neutral","down","spatial",97,"10","1","Control","Low","Low","HIgh","Reading"
700,37,700,"37,39",700,"test","true",37,"left","incongruent","down","spatial",98,"10","1","Control","Low","Low","HIgh","Reading"
1201,37,1201,"37,39",1201,"test","true",37,"left","incongruent","up","nocue",99,"10","1","Control","Low","Low","HIgh","Reading"
694,39,694,"37,39",694,"test","true",39,"right","congruent","up","double",100,"10","1","Control","Low","Low","HIgh","Reading"
528,37,528,"37,39",528,"test","true",37,"left","incongruent","up","spatial",101,"10","1","Control","Low","Low","HIgh","Reading"
1137,39,1137,"37,39",1137,"test","true",39,"right","incongruent","up","double",102,"10","1","Control","Low","Low","HIgh","Reading"
575,37,575,"37,39",575,"test","true",37,"left","congruent","up","center",103,"10","1","Control","Low","Low","HIgh","Reading"
667,39,667,"37,39",667,"test","true",39,"right","neutral","up","double",104,"10","1","Control","Low","Low","HIgh","Reading"
806,37,806,"37,39",806,"test","true",37,"left","incongruent","up","double",105,"10","1","Control","Low","Low","HIgh","Reading"
1109,37,1109,"37,39",1109,"test","true",37,"left","congruent","down","double",106,"10","1","Control","Low","Low","HIgh","Reading"
1103,39,1103,"37,39",1103,"test","true",39,"right","incongruent","down","center",107,"10","1","Control","Low","Low","HIgh","Reading"
907,37,907,"37,39",907,"test","true",37,"left","neutral","down","nocue",108,"10","1","Control","Low","Low","HIgh","Reading"
742,39,742,"37,39",742,"test","true",39,"right","congruent","down","center",109,"10","1","Control","Low","Low","HIgh","Reading"
968,37,968,"37,39",968,"test","true",37,"left","neutral","down","double",110,"10","1","Control","Low","Low","HIgh","Reading"
599,37,599,"37,39",599,"test","true",37,"left","neutral","down","spatial",111,"10","1","Control","Low","Low","HIgh","Reading"
817,39,817,"37,39",817,"test","true",39,"right","neutral","down","double",112,"10","1","Control","Low","Low","HIgh","Reading"
784,37,784,"37,39",784,"test","true",37,"left","neutral","up","spatial",113,"10","1","Control","Low","Low","HIgh","Reading"
917,39,917,"37,39",917,"test","true",39,"right","congruent","up","center",114,"10","1","Control","Low","Low","HIgh","Reading"
705,39,705,"37,39",705,"test","true",39,"right","congruent","down","spatial",115,"10","1","Control","Low","Low","HIgh","Reading"
1013,39,1013,"37,39",1013,"test","true",39,"right","incongruent","up","nocue",116,"10","1","Control","Low","Low","HIgh","Reading"
850,37,850,"37,39",850,"test","true",37,"left","incongruent","up","center",117,"10","1","Control","Low","Low","HIgh","Reading"
823,39,823,"37,39",823,"test","true",39,"right","congruent","down","double",118,"10","1","Control","Low","Low","HIgh","Reading"
817,39,817,"37,39",817,"test","true",39,"right","incongruent","up","spatial",119,"10","1","Control","Low","Low","HIgh","Reading"
719,39,719,"37,39",719,"test","true",39,"right","incongruent","up","center",120,"10","1","Control","Low","Low","HIgh","Reading"
699,37,699,"37,39",699,"test","true",37,"left","neutral","up","center",121,"10","1","Control","Low","Low","HIgh","Reading"
677,39,677,"37,39",677,"test","true",39,"right","neutral","up","center",122,"10","1","Control","Low","Low","HIgh","Reading"
1104,37,1104,"37,39",1104,"test","true",37,"left","incongruent","down","center",123,"10","1","Control","Low","Low","HIgh","Reading"
655,39,655,"37,39",655,"test","true",39,"right","neutral","down","center",124,"10","1","Control","Low","Low","HIgh","Reading"
1017,37,1017,"37,39",1017,"test","true",37,"left","congruent","up","nocue",125,"10","1","Control","Low","Low","HIgh","Reading"
623,39,623,"37,39",623,"test","true",39,"right","neutral","up","spatial",126,"10","1","Control","Low","Low","HIgh","Reading"
879,39,879,"37,39",879,"test","true",39,"right","congruent","down","nocue",127,"10","1","Control","Low","Low","HIgh","Reading"
487,37,487,"37,39",487,"test","true",37,"left","congruent","up","spatial",128,"10","1","Control","Low","Low","HIgh","Reading"
552,39,552,"37,39",552,"test","true",39,"right","congruent","up","spatial",129,"10","1","Control","Low","Low","HIgh","Reading"
937,39,937,"37,39",937,"test","true",39,"right","incongruent","down","double",130,"10","1","Control","Low","Low","HIgh","Reading"
1412,37,1412,"37,39",1412,"test","true",37,"left","incongruent","down","nocue",131,"10","1","Control","Low","Low","HIgh","Reading"
694,39,694,"37,39",694,"test","true",39,"right","neutral","up","nocue",132,"10","1","Control","Low","Low","HIgh","Reading"
847,39,847,"37,39",847,"test","true",39,"right","congruent","up","nocue",133,"10","1","Control","Low","Low","HIgh","Reading"
989,39,989,"37,39",989,"test","true",39,"right","neutral","down","nocue",134,"10","1","Control","Low","Low","HIgh","Reading"
1085,37,1085,"37,39",1085,"test","true",37,"left","congruent","down","nocue",135,"10","1","Control","Low","Low","HIgh","Reading"
940,37,940,"37,39",940,"test","true",37,"left","congruent","down","spatial",137,"10","1","Control","Low","Low","HIgh","Reading"
977,37,977,"37,39",977,"test","true",37,"left","incongruent","down","double",138,"10","1","Control","Low","Low","HIgh","Reading"
1358,39,1358,"37,39",1358,"test","true",39,"right","incongruent","down","nocue",139,"10","1","Control","Low","Low","HIgh","Reading"
852,39,852,"37,39",852,"test","true",39,"right","incongruent","down","spatial",140,"10","1","Control","Low","Low","HIgh","Reading"
887,37,887,"37,39",887,"test","true",37,"left","neutral","up","nocue",141,"10","1","Control","Low","Low","HIgh","Reading"
721,37,721,"37,39",721,"test","true",37,"left","neutral","down","center",142,"10","1","Control","Low","Low","HIgh","Reading"
801,37,801,"37,39",801,"test","true",37,"left","congruent","up","double",143,"10","1","Control","Low","Low","HIgh","Reading"
746,37,746,"37,39",746,"test","true",37,"left","congruent","down","center",144,"10","1","Control","Low","Low","HIgh","Reading"
785,37,785,"37,39",785,"test","true",37,"left","neutral","down","center",1,"10","2","Control","Low","Low","HIgh","Reading"
677,37,677,"37,39",677,"test","true",37,"left","neutral","down","nocue",2,"10","2","Control","Low","Low","HIgh","Reading"
990,37,990,"37,39",990,"test","true",37,"left","incongruent","down","nocue",3,"10","2","Control","Low","Low","HIgh","Reading"
729,37,729,"37,39",729,"test","true",37,"left","congruent","down","center",4,"10","2","Control","Low","Low","HIgh","Reading"
613,37,613,"37,39",613,"test","true",37,"left","congruent","down","double",5,"10","2","Control","Low","Low","HIgh","Reading"
1166,39,1166,"37,39",1166,"test","true",39,"right","congruent","up","spatial",6,"10","2","Control","Low","Low","HIgh","Reading"
889,39,889,"37,39",889,"test","true",39,"right","incongruent","up","center",7,"10","2","Control","Low","Low","HIgh","Reading"
645,39,645,"37,39",645,"test","true",39,"right","neutral","up","spatial",8,"10","2","Control","Low","Low","HIgh","Reading"
721,39,721,"37,39",721,"test","true",39,"right","incongruent","up","double",9,"10","2","Control","Low","Low","HIgh","Reading"
751,37,751,"37,39",751,"test","true",37,"left","incongruent","up","nocue",10,"10","2","Control","Low","Low","HIgh","Reading"
1384,37,1384,"37,39",1384,"test","true",37,"left","congruent","down","nocue",11,"10","2","Control","Low","Low","HIgh","Reading"
806,37,806,"37,39",806,"test","true",37,"left","incongruent","down","center",12,"10","2","Control","Low","Low","HIgh","Reading"
544,37,544,"37,39",544,"test","true",37,"left","neutral","down","double",13,"10","2","Control","Low","Low","HIgh","Reading"
818,39,818,"37,39",818,"test","true",39,"right","incongruent","down","spatial",14,"10","2","Control","Low","Low","HIgh","Reading"
920,39,920,"37,39",920,"test","true",39,"right","congruent","down","double",15,"10","2","Control","Low","Low","HIgh","Reading"
847,37,847,"37,39",847,"test","true",37,"left","incongruent","down","double",16,"10","2","Control","Low","Low","HIgh","Reading"
1231,39,1231,"37,39",1231,"test","true",39,"right","congruent","up","nocue",17,"10","2","Control","Low","Low","HIgh","Reading"
735,37,735,"37,39",735,"test","true",37,"left","incongruent","up","double",18,"10","2","Control","Low","Low","HIgh","Reading"
771,37,771,"37,39",771,"test","true",37,"left","congruent","up","double",19,"10","2","Control","Low","Low","HIgh","Reading"
1069,39,1069,"37,39",1069,"test","true",39,"right","congruent","up","double",20,"10","2","Control","Low","Low","HIgh","Reading"
539,37,539,"37,39",539,"test","true",37,"left","neutral","up","double",21,"10","2","Control","Low","Low","HIgh","Reading"
711,39,711,"37,39",711,"test","true",39,"right","congruent","up","center",22,"10","2","Control","Low","Low","HIgh","Reading"
767,39,767,"37,39",767,"test","true",39,"right","neutral","up","double",23,"10","2","Control","Low","Low","HIgh","Reading"
1159,39,1159,"37,39",1159,"test","true",39,"right","incongruent","down","center",24,"10","2","Control","Low","Low","HIgh","Reading"
1252,39,1252,"37,39",1252,"test","true",39,"right","incongruent","down","double",25,"10","2","Control","Low","Low","HIgh","Reading"
813,39,813,"37,39",813,"test","true",39,"right","neutral","down","spatial",26,"10","2","Control","Low","Low","HIgh","Reading"
677,39,677,"37,39",677,"test","true",39,"right","congruent","down","spatial",27,"10","2","Control","Low","Low","HIgh","Reading"
756,37,756,"37,39",756,"test","true",37,"left","neutral","up","center",28,"10","2","Control","Low","Low","HIgh","Reading"
728,37,728,"37,39",728,"test","true",37,"left","congruent","up","center",29,"10","2","Control","Low","Low","HIgh","Reading"
569,37,569,"37,39",569,"test","true",37,"left","neutral","up","nocue",30,"10","2","Control","Low","Low","HIgh","Reading"
773,39,773,"37,39",773,"test","true",39,"right","neutral","up","center",31,"10","2","Control","Low","Low","HIgh","Reading"
1043,39,1043,"37,39",1043,"test","true",39,"right","congruent","down","nocue",32,"10","2","Control","Low","Low","HIgh","Reading"
626,39,626,"37,39",626,"test","true",39,"right","neutral","up","nocue",33,"10","2","Control","Low","Low","HIgh","Reading"
956,37,956,"37,39",956,"test","true",37,"left","congruent","up","nocue",34,"10","2","Control","Low","Low","HIgh","Reading"
1162,39,1162,"37,39",1162,"test","true",39,"right","incongruent","up","nocue",35,"10","2","Control","Low","Low","HIgh","Reading"
934,39,934,"37,39",934,"test","true",39,"right","neutral","down","nocue",36,"10","2","Control","Low","Low","HIgh","Reading"
1079,39,1079,"37,39",1079,"test","true",39,"right","incongruent","up","spatial",37,"10","2","Control","Low","Low","HIgh","Reading"
551,37,551,"37,39",551,"test","true",37,"left","neutral","down","spatial",38,"10","2","Control","Low","Low","HIgh","Reading"
940,39,940,"37,39",940,"test","true",39,"right","neutral","down","center",39,"10","2","Control","Low","Low","HIgh","Reading"
780,39,780,"37,39",780,"test","true",39,"right","congruent","down","center",40,"10","2","Control","Low","Low","HIgh","Reading"
715,37,715,"37,39",715,"test","true",37,"left","incongruent","up","center",41,"10","2","Control","Low","Low","HIgh","Reading"
1096,39,1096,"37,39",1096,"test","true",39,"right","incongruent","down","nocue",42,"10","2","Control","Low","Low","HIgh","Reading"
579,37,579,"37,39",579,"test","true",37,"left","incongruent","down","spatial",43,"10","2","Control","Low","Low","HIgh","Reading"
1060,37,1060,"37,39",1060,"test","true",37,"left","incongruent","up","spatial",44,"10","2","Control","Low","Low","HIgh","Reading"
462,37,462,"37,39",462,"test","true",37,"left","congruent","up","spatial",45,"10","2","Control","Low","Low","HIgh","Reading"
767,37,767,"37,39",767,"test","true",37,"left","congruent","down","spatial",46,"10","2","Control","Low","Low","HIgh","Reading"
438,37,438,"37,39",438,"test","true",37,"left","neutral","up","spatial",47,"10","2","Control","Low","Low","HIgh","Reading"
863,39,863,"37,39",863,"test","true",39,"right","neutral","down","double",48,"10","2","Control","Low","Low","HIgh","Reading"
760,39,760,"37,39",760,"test","true",39,"right","congruent","up","center",49,"10","2","Control","Low","Low","HIgh","Reading"
975,37,975,"37,39",975,"test","true",37,"left","incongruent","down","double",50,"10","2","Control","Low","Low","HIgh","Reading"
711,37,711,"37,39",711,"test","true",37,"left","incongruent","down","spatial",51,"10","2","Control","Low","Low","HIgh","Reading"
792,39,792,"37,39",792,"test","true",39,"right","incongruent","down","spatial",52,"10","2","Control","Low","Low","HIgh","Reading"
727,39,727,"37,39",727,"test","true",39,"right","congruent","up","spatial",53,"10","2","Control","Low","Low","HIgh","Reading"
680,37,680,"37,39",680,"test","true",37,"left","congruent","up","center",54,"10","2","Control","Low","Low","HIgh","Reading"
824,39,824,"37,39",824,"test","true",39,"right","neutral","up","center",55,"10","2","Control","Low","Low","HIgh","Reading"
865,39,865,"37,39",865,"test","true",39,"right","incongruent","up","center",57,"10","2","Control","Low","Low","HIgh","Reading"
462,37,462,"37,39",462,"test","true",37,"left","incongruent","up","center",58,"10","2","Control","Low","Low","HIgh","Reading"
749,39,749,"37,39",749,"test","true",39,"right","congruent","up","nocue",59,"10","2","Control","Low","Low","HIgh","Reading"
722,39,722,"37,39",722,"test","true",39,"right","incongruent","up","double",60,"10","2","Control","Low","Low","HIgh","Reading"
633,39,633,"37,39",633,"test","true",39,"right","incongruent","up","spatial",61,"10","2","Control","Low","Low","HIgh","Reading"
942,37,942,"37,39",942,"test","true",37,"left","congruent","down","nocue",62,"10","2","Control","Low","Low","HIgh","Reading"
673,37,673,"37,39",673,"test","true",37,"left","neutral","up","center",63,"10","2","Control","Low","Low","HIgh","Reading"
677,39,677,"37,39",677,"test","true",39,"right","congruent","up","double",64,"10","2","Control","Low","Low","HIgh","Reading"
729,37,729,"37,39",729,"test","true",37,"left","congruent","down","double",65,"10","2","Control","Low","Low","HIgh","Reading"
553,37,553,"37,39",553,"test","true",37,"left","neutral","down","spatial",66,"10","2","Control","Low","Low","HIgh","Reading"
1183,39,1183,"37,39",1183,"test","true",39,"right","congruent","down","center",67,"10","2","Control","Low","Low","HIgh","Reading"
723,37,723,"37,39",723,"test","true",37,"left","congruent","up","double",68,"10","2","Control","Low","Low","HIgh","Reading"
1280,39,1280,"37,39",1280,"test","true",39,"right","neutral","down","double",69,"10","2","Control","Low","Low","HIgh","Reading"
746,37,746,"37,39",746,"test","true",37,"left","incongruent","up","nocue",70,"10","2","Control","Low","Low","HIgh","Reading"
471,37,471,"37,39",471,"test","true",37,"left","congruent","up","spatial",71,"10","2","Control","Low","Low","HIgh","Reading"
826,39,826,"37,39",826,"test","true",39,"right","congruent","down","double",72,"10","2","Control","Low","Low","HIgh","Reading"
740,37,740,"37,39",740,"test","true",37,"left","neutral","down","nocue",73,"10","2","Control","Low","Low","HIgh","Reading"
938,39,938,"37,39",938,"test","true",39,"right","incongruent","down","center",74,"10","2","Control","Low","Low","HIgh","Reading"
1002,39,1002,"37,39",1002,"test","true",39,"right","incongruent","down","nocue",75,"10","2","Control","Low","Low","HIgh","Reading"
978,37,978,"37,39",978,"test","true",37,"left","incongruent","up","double",76,"10","2","Control","Low","Low","HIgh","Reading"
954,39,954,"37,39",954,"test","true",39,"right","incongruent","up","nocue",77,"10","2","Control","Low","Low","HIgh","Reading"
677,37,677,"37,39",677,"test","true",37,"left","incongruent","down","nocue",78,"10","2","Control","Low","Low","HIgh","Reading"
750,39,750,"37,39",750,"test","true",39,"right","neutral","up","nocue",79,"10","2","Control","Low","Low","HIgh","Reading"
714,37,714,"37,39",714,"test","true",37,"left","neutral","down","double",80,"10","2","Control","Low","Low","HIgh","Reading"
652,37,652,"37,39",652,"test","true",37,"left","congruent","down","center",81,"10","2","Control","Low","Low","HIgh","Reading"
748,37,748,"37,39",748,"test","true",37,"left","neutral","up","nocue",82,"10","2","Control","Low","Low","HIgh","Reading"
754,39,754,"37,39",754,"test","true",39,"right","neutral","up","spatial",83,"10","2","Control","Low","Low","HIgh","Reading"
959,37,959,"37,39",959,"test","true",37,"left","incongruent","down","center",84,"10","2","Control","Low","Low","HIgh","Reading"
938,37,938,"37,39",938,"test","true",37,"left","incongruent","up","spatial",85,"10","2","Control","Low","Low","HIgh","Reading"
438,37,438,"37,39",438,"test","true",37,"left","neutral","up","spatial",86,"10","2","Control","Low","Low","HIgh","Reading"
1161,39,1161,"37,39",1161,"test","true",39,"right","neutral","down","nocue",88,"10","2","Control","Low","Low","HIgh","Reading"
759,39,759,"37,39",759,"test","true",39,"right","neutral","up","double",89,"10","2","Control","Low","Low","HIgh","Reading"
726,37,726,"37,39",726,"test","true",37,"left","congruent","up","nocue",90,"10","2","Control","Low","Low","HIgh","Reading"
820,39,820,"37,39",820,"test","true",39,"right","congruent","down","nocue",91,"10","2","Control","Low","Low","HIgh","Reading"
767,39,767,"37,39",767,"test","true",39,"right","neutral","down","spatial",92,"10","2","Control","Low","Low","HIgh","Reading"
516,37,516,"37,39",516,"test","true",37,"left","neutral","up","double",93,"10","2","Control","Low","Low","HIgh","Reading"
674,37,674,"37,39",674,"test","true",37,"left","neutral","down","center",94,"10","2","Control","Low","Low","HIgh","Reading"
830,39,830,"37,39",830,"test","true",39,"right","congruent","down","spatial",95,"10","2","Control","Low","Low","HIgh","Reading"
473,37,473,"37,39",473,"test","true",37,"left","congruent","down","spatial",96,"10","2","Control","Low","Low","HIgh","Reading"
781,39,781,"37,39",781,"test","true",39,"right","neutral","down","nocue",98,"10","2","Control","Low","Low","HIgh","Reading"
782,39,782,"37,39",782,"test","true",39,"right","neutral","up","center",99,"10","2","Control","Low","Low","HIgh","Reading"
824,37,824,"37,39",824,"test","true",37,"left","congruent","down","center",100,"10","2","Control","Low","Low","HIgh","Reading"
662,39,662,"37,39",662,"test","true",39,"right","neutral","down","center",101,"10","2","Control","Low","Low","HIgh","Reading"
491,39,491,"37,39",491,"test","true",39,"right","congruent","up","spatial",102,"10","2","Control","Low","Low","HIgh","Reading"
771,37,771,"37,39",771,"test","true",37,"left","neutral","up","nocue",103,"10","2","Control","Low","Low","HIgh","Reading"
865,37,865,"37,39",865,"test","true",37,"left","congruent","down","nocue",104,"10","2","Control","Low","Low","HIgh","Reading"
848,37,848,"37,39",848,"test","true",37,"left","incongruent","down","double",105,"10","2","Control","Low","Low","HIgh","Reading"
548,37,548,"37,39",548,"test","true",37,"left","incongruent","down","nocue",106,"10","2","Control","Low","Low","HIgh","Reading"
562,37,562,"37,39",562,"test","true",37,"left","congruent","up","center",107,"10","2","Control","Low","Low","HIgh","Reading"
729,37,729,"37,39",729,"test","true",37,"left","neutral","down","double",108,"10","2","Control","Low","Low","HIgh","Reading"
542,37,542,"37,39",542,"test","true",37,"left","neutral","up","center",109,"10","2","Control","Low","Low","HIgh","Reading"
780,37,780,"37,39",780,"test","true",37,"left","incongruent","up","double",110,"10","2","Control","Low","Low","HIgh","Reading"
1096,39,1096,"37,39",1096,"test","true",39,"right","incongruent","up","double",112,"10","2","Control","Low","Low","HIgh","Reading"
483,37,483,"37,39",483,"test","true",37,"left","congruent","up","spatial",113,"10","2","Control","Low","Low","HIgh","Reading"
694,37,694,"37,39",694,"test","true",37,"left","congruent","down","spatial",114,"10","2","Control","Low","Low","HIgh","Reading"
738,37,738,"37,39",738,"test","true",37,"left","neutral","down","center",115,"10","2","Control","Low","Low","HIgh","Reading"
1131,39,1131,"37,39",1131,"test","true",39,"right","incongruent","down","double",116,"10","2","Control","Low","Low","HIgh","Reading"
764,39,764,"37,39",764,"test","true",39,"right","congruent","down","center",117,"10","2","Control","Low","Low","HIgh","Reading"
479,37,479,"37,39",479,"test","true",37,"left","neutral","up","spatial",118,"10","2","Control","Low","Low","HIgh","Reading"
822,39,822,"37,39",822,"test","true",39,"right","incongruent","up","nocue",119,"10","2","Control","Low","Low","HIgh","Reading"
579,37,579,"37,39",579,"test","true",37,"left","congruent","up","nocue",120,"10","2","Control","Low","Low","HIgh","Reading"
708,37,708,"37,39",708,"test","true",37,"left","neutral","down","nocue",121,"10","2","Control","Low","Low","HIgh","Reading"
820,39,820,"37,39",820,"test","true",39,"right","neutral","down","double",122,"10","2","Control","Low","Low","HIgh","Reading"
705,39,705,"37,39",705,"test","true",39,"right","congruent","down","spatial",123,"10","2","Control","Low","Low","HIgh","Reading"
739,37,739,"37,39",739,"test","true",37,"left","neutral","up","double",124,"10","2","Control","Low","Low","HIgh","Reading"
1016,39,1016,"37,39",1016,"test","true",39,"right","incongruent","down","center",125,"10","2","Control","Low","Low","HIgh","Reading"
712,39,712,"37,39",712,"test","true",39,"right","congruent","up","double",126,"10","2","Control","Low","Low","HIgh","Reading"
731,37,731,"37,39",731,"test","true",37,"left","incongruent","up","center",127,"10","2","Control","Low","Low","HIgh","Reading"
808,37,808,"37,39",808,"test","true",37,"left","incongruent","up","nocue",128,"10","2","Control","Low","Low","HIgh","Reading"
931,39,931,"37,39",931,"test","true",39,"right","neutral","up","nocue",129,"10","2","Control","Low","Low","HIgh","Reading"
845,37,845,"37,39",845,"test","true",37,"left","incongruent","down","center",130,"10","2","Control","Low","Low","HIgh","Reading"
718,39,718,"37,39",718,"test","true",39,"right","neutral","up","spatial",131,"10","2","Control","Low","Low","HIgh","Reading"
463,37,463,"37,39",463,"test","true",37,"left","congruent","up","double",132,"10","2","Control","Low","Low","HIgh","Reading"
1000,39,1000,"37,39",1000,"test","true",39,"right","congruent","down","double",133,"10","2","Control","Low","Low","HIgh","Reading"
775,39,775,"37,39",775,"test","true",39,"right","neutral","down","spatial",134,"10","2","Control","Low","Low","HIgh","Reading"
834,39,834,"37,39",834,"test","true",39,"right","incongruent","up","spatial",135,"10","2","Control","Low","Low","HIgh","Reading"
684,39,684,"37,39",684,"test","true",39,"right","neutral","up","double",136,"10","2","Control","Low","Low","HIgh","Reading"
855,37,855,"37,39",855,"test","true",37,"left","incongruent","down","spatial",137,"10","2","Control","Low","Low","HIgh","Reading"
706,39,706,"37,39",706,"test","true",39,"right","incongruent","up","center",138,"10","2","Control","Low","Low","HIgh","Reading"
730,39,730,"37,39",730,"test","true",39,"right","congruent","up","nocue",139,"10","2","Control","Low","Low","HIgh","Reading"
943,37,943,"37,39",943,"test","true",37,"left","neutral","down","spatial",140,"10","2","Control","Low","Low","HIgh","Reading"
1045,37,1045,"37,39",1045,"test","true",37,"left","congruent","down","double",141,"10","2","Control","Low","Low","HIgh","Reading"
1069,39,1069,"37,39",1069,"test","true",39,"right","congruent","down","nocue",142,"10","2","Control","Low","Low","HIgh","Reading"
1089,39,1089,"37,39",1089,"test","true",39,"right","congruent","up","center",143,"10","2","Control","Low","Low","HIgh","Reading"
548,37,548,"37,39",548,"test","true",37,"left","incongruent","up","spatial",144,"10","2","Control","Low","Low","HIgh","Reading"
952,37,952,"37,39",952,"test","true",37,"left","incongruent","down","double",1,"11","1","Meditation","High","Medium","HIgh","FAM"
985,39,985,"37,39",985,"test","true",39,"right","congruent","down","spatial",2,"11","1","Meditation","High","Medium","HIgh","FAM"
836,39,836,"37,39",836,"test","true",39,"right","congruent","down","double",3,"11","1","Meditation","High","Medium","HIgh","FAM"
1020,37,1020,"37,39",1020,"test","true",37,"left","incongruent","down","spatial",4,"11","1","Meditation","High","Medium","HIgh","FAM"
1128,37,1128,"37,39",1128,"test","true",37,"left","incongruent","up","double",5,"11","1","Meditation","High","Medium","HIgh","FAM"
973,39,973,"37,39",973,"test","true",39,"right","incongruent","up","double",6,"11","1","Meditation","High","Medium","HIgh","FAM"
756,37,756,"37,39",756,"test","true",37,"left","congruent","up","center",7,"11","1","Meditation","High","Medium","HIgh","FAM"
830,39,830,"37,39",830,"test","true",39,"right","congruent","up","double",8,"11","1","Meditation","High","Medium","HIgh","FAM"
838,39,838,"37,39",838,"test","true",39,"right","congruent","down","nocue",9,"11","1","Meditation","High","Medium","HIgh","FAM"
734,37,734,"37,39",734,"test","true",37,"left","neutral","up","double",10,"11","1","Meditation","High","Medium","HIgh","FAM"
766,39,766,"37,39",766,"test","true",39,"right","neutral","down","spatial",11,"11","1","Meditation","High","Medium","HIgh","FAM"
1170,39,1170,"37,39",1170,"test","true",39,"right","incongruent","down","nocue",12,"11","1","Meditation","High","Medium","HIgh","FAM"
790,37,790,"37,39",790,"test","true",37,"left","neutral","up","nocue",13,"11","1","Meditation","High","Medium","HIgh","FAM"
666,39,666,"37,39",666,"test","true",39,"right","neutral","up","center",15,"11","1","Meditation","High","Medium","HIgh","FAM"
916,39,916,"37,39",916,"test","true",39,"right","neutral","down","center",16,"11","1","Meditation","High","Medium","HIgh","FAM"
841,37,841,"37,39",841,"test","true",37,"left","congruent","down","spatial",17,"11","1","Meditation","High","Medium","HIgh","FAM"
586,39,586,"37,39",586,"test","true",39,"right","neutral","up","spatial",18,"11","1","Meditation","High","Medium","HIgh","FAM"
610,39,610,"37,39",610,"test","true",39,"right","congruent","up","center",19,"11","1","Meditation","High","Medium","HIgh","FAM"
641,39,641,"37,39",641,"test","true",39,"right","incongruent","up","nocue",20,"11","1","Meditation","High","Medium","HIgh","FAM"
709,37,709,"37,39",709,"test","true",37,"left","congruent","down","double",21,"11","1","Meditation","High","Medium","HIgh","FAM"
920,37,920,"37,39",920,"test","true",37,"left","neutral","down","center",22,"11","1","Meditation","High","Medium","HIgh","FAM"
611,37,611,"37,39",611,"test","true",37,"left","neutral","up","spatial",23,"11","1","Meditation","High","Medium","HIgh","FAM"
811,37,811,"37,39",811,"test","true",37,"left","congruent","down","center",24,"11","1","Meditation","High","Medium","HIgh","FAM"
705,39,705,"37,39",705,"test","true",39,"right","neutral","down","nocue",25,"11","1","Meditation","High","Medium","HIgh","FAM"
563,37,563,"37,39",563,"test","true",37,"left","congruent","up","spatial",26,"11","1","Meditation","High","Medium","HIgh","FAM"
761,37,761,"37,39",761,"test","true",37,"left","neutral","down","double",27,"11","1","Meditation","High","Medium","HIgh","FAM"
836,37,836,"37,39",836,"test","true",37,"left","neutral","down","nocue",28,"11","1","Meditation","High","Medium","HIgh","FAM"
619,37,619,"37,39",619,"test","true",37,"left","neutral","up","center",29,"11","1","Meditation","High","Medium","HIgh","FAM"
873,39,873,"37,39",873,"test","true",39,"right","neutral","down","double",30,"11","1","Meditation","High","Medium","HIgh","FAM"
789,39,789,"37,39",789,"test","true",39,"right","congruent","up","nocue",31,"11","1","Meditation","High","Medium","HIgh","FAM"
561,37,561,"37,39",561,"test","true",37,"left","neutral","down","spatial",32,"11","1","Meditation","High","Medium","HIgh","FAM"
713,37,713,"37,39",713,"test","true",37,"left","congruent","up","nocue",33,"11","1","Meditation","High","Medium","HIgh","FAM"
1245,39,1245,"37,39",1245,"test","true",39,"right","congruent","down","center",34,"11","1","Meditation","High","Medium","HIgh","FAM"
564,37,564,"37,39",564,"test","true",37,"left","incongruent","up","spatial",35,"11","1","Meditation","High","Medium","HIgh","FAM"
910,39,910,"37,39",910,"test","true",39,"right","incongruent","down","double",37,"11","1","Meditation","High","Medium","HIgh","FAM"
766,37,766,"37,39",766,"test","true",37,"left","incongruent","up","center",38,"11","1","Meditation","High","Medium","HIgh","FAM"
1246,37,1246,"37,39",1246,"test","true",37,"left","congruent","down","nocue",39,"11","1","Meditation","High","Medium","HIgh","FAM"
606,37,606,"37,39",606,"test","true",37,"left","congruent","up","double",40,"11","1","Meditation","High","Medium","HIgh","FAM"
1047,39,1047,"37,39",1047,"test","true",39,"right","neutral","up","nocue",41,"11","1","Meditation","High","Medium","HIgh","FAM"
813,39,813,"37,39",813,"test","true",39,"right","neutral","up","double",43,"11","1","Meditation","High","Medium","HIgh","FAM"
746,39,746,"37,39",746,"test","true",39,"right","incongruent","down","spatial",44,"11","1","Meditation","High","Medium","HIgh","FAM"
867,39,867,"37,39",867,"test","true",39,"right","incongruent","up","center",45,"11","1","Meditation","High","Medium","HIgh","FAM"
516,39,516,"37,39",516,"test","true",39,"right","congruent","up","spatial",46,"11","1","Meditation","High","Medium","HIgh","FAM"
586,39,586,"37,39",586,"test","true",39,"right","incongruent","up","spatial",47,"11","1","Meditation","High","Medium","HIgh","FAM"
1071,37,1071,"37,39",1071,"test","true",37,"left","incongruent","down","center",48,"11","1","Meditation","High","Medium","HIgh","FAM"
764,39,764,"37,39",764,"test","true",39,"right","incongruent","up","center",49,"11","1","Meditation","High","Medium","HIgh","FAM"
605,39,605,"37,39",605,"test","true",39,"right","congruent","up","center",50,"11","1","Meditation","High","Medium","HIgh","FAM"
585,39,585,"37,39",585,"test","true",39,"right","congruent","down","spatial",51,"11","1","Meditation","High","Medium","HIgh","FAM"
708,37,708,"37,39",708,"test","true",37,"left","congruent","up","nocue",52,"11","1","Meditation","High","Medium","HIgh","FAM"
617,37,617,"37,39",617,"test","true",37,"left","neutral","up","double",53,"11","1","Meditation","High","Medium","HIgh","FAM"
741,39,741,"37,39",741,"test","true",39,"right","congruent","up","nocue",54,"11","1","Meditation","High","Medium","HIgh","FAM"
517,39,517,"37,39",517,"test","true",39,"right","congruent","up","spatial",55,"11","1","Meditation","High","Medium","HIgh","FAM"
536,39,536,"37,39",536,"test","true",39,"right","incongruent","up","double",56,"11","1","Meditation","High","Medium","HIgh","FAM"
725,37,725,"37,39",725,"test","true",37,"left","incongruent","up","nocue",57,"11","1","Meditation","High","Medium","HIgh","FAM"
659,39,659,"37,39",659,"test","true",39,"right","neutral","up","center",58,"11","1","Meditation","High","Medium","HIgh","FAM"
892,39,892,"37,39",892,"test","true",39,"right","incongruent","down","double",59,"11","1","Meditation","High","Medium","HIgh","FAM"
734,37,734,"37,39",734,"test","true",37,"left","congruent","down","double",60,"11","1","Meditation","High","Medium","HIgh","FAM"
812,39,812,"37,39",812,"test","true",39,"right","incongruent","down","center",61,"11","1","Meditation","High","Medium","HIgh","FAM"
592,39,592,"37,39",592,"test","true",39,"right","neutral","up","spatial",62,"11","1","Meditation","High","Medium","HIgh","FAM"
730,39,730,"37,39",730,"test","true",39,"right","congruent","down","nocue",63,"11","1","Meditation","High","Medium","HIgh","FAM"
530,39,530,"37,39",530,"test","true",39,"right","congruent","up","double",64,"11","1","Meditation","High","Medium","HIgh","FAM"
868,39,868,"37,39",868,"test","true",39,"right","incongruent","down","spatial",65,"11","1","Meditation","High","Medium","HIgh","FAM"
989,37,989,"37,39",989,"test","true",37,"left","incongruent","down","double",66,"11","1","Meditation","High","Medium","HIgh","FAM"
574,37,574,"37,39",574,"test","true",37,"left","incongruent","up","spatial",67,"11","1","Meditation","High","Medium","HIgh","FAM"
625,37,625,"37,39",625,"test","true",37,"left","neutral","down","spatial",68,"11","1","Meditation","High","Medium","HIgh","FAM"
770,37,770,"37,39",770,"test","true",37,"left","congruent","down","center",69,"11","1","Meditation","High","Medium","HIgh","FAM"
614,37,614,"37,39",614,"test","true",37,"left","incongruent","down","spatial",70,"11","1","Meditation","High","Medium","HIgh","FAM"
594,37,594,"37,39",594,"test","true",37,"left","neutral","down","center",71,"11","1","Meditation","High","Medium","HIgh","FAM"
754,37,754,"37,39",754,"test","true",37,"left","incongruent","down","nocue",72,"11","1","Meditation","High","Medium","HIgh","FAM"
675,39,675,"37,39",675,"test","true",39,"right","neutral","down","spatial",73,"11","1","Meditation","High","Medium","HIgh","FAM"
834,39,834,"37,39",834,"test","true",39,"right","congruent","down","double",74,"11","1","Meditation","High","Medium","HIgh","FAM"
628,37,628,"37,39",628,"test","true",37,"left","congruent","down","nocue",75,"11","1","Meditation","High","Medium","HIgh","FAM"
938,37,938,"37,39",938,"test","true",37,"left","incongruent","up","double",76,"11","1","Meditation","High","Medium","HIgh","FAM"
872,37,872,"37,39",872,"test","true",37,"left","neutral","down","double",77,"11","1","Meditation","High","Medium","HIgh","FAM"
560,39,560,"37,39",560,"test","true",39,"right","neutral","down","double",78,"11","1","Meditation","High","Medium","HIgh","FAM"
638,37,638,"37,39",638,"test","true",37,"left","congruent","up","center",79,"11","1","Meditation","High","Medium","HIgh","FAM"
1039,39,1039,"37,39",1039,"test","true",39,"right","incongruent","down","nocue",80,"11","1","Meditation","High","Medium","HIgh","FAM"
712,39,712,"37,39",712,"test","true",39,"right","neutral","down","nocue",81,"11","1","Meditation","High","Medium","HIgh","FAM"
700,37,700,"37,39",700,"test","true",37,"left","congruent","up","spatial",82,"11","1","Meditation","High","Medium","HIgh","FAM"
771,39,771,"37,39",771,"test","true",39,"right","neutral","up","nocue",83,"11","1","Meditation","High","Medium","HIgh","FAM"
703,37,703,"37,39",703,"test","true",37,"left","congruent","down","spatial",84,"11","1","Meditation","High","Medium","HIgh","FAM"
901,37,901,"37,39",901,"test","true",37,"left","neutral","down","nocue",85,"11","1","Meditation","High","Medium","HIgh","FAM"
544,39,544,"37,39",544,"test","true",39,"right","neutral","up","double",86,"11","1","Meditation","High","Medium","HIgh","FAM"
758,37,758,"37,39",758,"test","true",37,"left","incongruent","up","center",87,"11","1","Meditation","High","Medium","HIgh","FAM"
597,37,597,"37,39",597,"test","true",37,"left","neutral","up","center",88,"11","1","Meditation","High","Medium","HIgh","FAM"
499,37,499,"37,39",499,"test","true",37,"left","neutral","up","spatial",89,"11","1","Meditation","High","Medium","HIgh","FAM"
947,39,947,"37,39",947,"test","true",39,"right","incongruent","up","nocue",90,"11","1","Meditation","High","Medium","HIgh","FAM"
727,37,727,"37,39",727,"test","true",37,"left","neutral","up","nocue",91,"11","1","Meditation","High","Medium","HIgh","FAM"
893,37,893,"37,39",893,"test","true",37,"left","incongruent","down","center",92,"11","1","Meditation","High","Medium","HIgh","FAM"
563,39,563,"37,39",563,"test","true",39,"right","incongruent","up","spatial",93,"11","1","Meditation","High","Medium","HIgh","FAM"
853,39,853,"37,39",853,"test","true",39,"right","neutral","down","center",94,"11","1","Meditation","High","Medium","HIgh","FAM"
742,39,742,"37,39",742,"test","true",39,"right","congruent","down","center",95,"11","1","Meditation","High","Medium","HIgh","FAM"
758,37,758,"37,39",758,"test","true",37,"left","congruent","up","double",96,"11","1","Meditation","High","Medium","HIgh","FAM"
798,37,798,"37,39",798,"test","true",37,"left","incongruent","up","center",97,"11","1","Meditation","High","Medium","HIgh","FAM"
890,37,890,"37,39",890,"test","true",37,"left","congruent","down","nocue",98,"11","1","Meditation","High","Medium","HIgh","FAM"
624,39,624,"37,39",624,"test","true",39,"right","incongruent","up","spatial",99,"11","1","Meditation","High","Medium","HIgh","FAM"
908,39,908,"37,39",908,"test","true",39,"right","neutral","down","nocue",100,"11","1","Meditation","High","Medium","HIgh","FAM"
821,39,821,"37,39",821,"test","true",39,"right","congruent","up","double",101,"11","1","Meditation","High","Medium","HIgh","FAM"
728,37,728,"37,39",728,"test","true",37,"left","congruent","down","center",102,"11","1","Meditation","High","Medium","HIgh","FAM"
812,37,812,"37,39",812,"test","true",37,"left","neutral","down","nocue",103,"11","1","Meditation","High","Medium","HIgh","FAM"
790,37,790,"37,39",790,"test","true",37,"left","neutral","down","center",104,"11","1","Meditation","High","Medium","HIgh","FAM"
636,39,636,"37,39",636,"test","true",39,"right","neutral","down","spatial",105,"11","1","Meditation","High","Medium","HIgh","FAM"
863,37,863,"37,39",863,"test","true",37,"left","congruent","up","double",106,"11","1","Meditation","High","Medium","HIgh","FAM"
773,37,773,"37,39",773,"test","true",37,"left","incongruent","up","double",107,"11","1","Meditation","High","Medium","HIgh","FAM"
902,37,902,"37,39",902,"test","true",37,"left","congruent","down","double",108,"11","1","Meditation","High","Medium","HIgh","FAM"
1158,39,1158,"37,39",1158,"test","true",39,"right","incongruent","down","double",109,"11","1","Meditation","High","Medium","HIgh","FAM"
880,37,880,"37,39",880,"test","true",37,"left","neutral","down","double",110,"11","1","Meditation","High","Medium","HIgh","FAM"
688,39,688,"37,39",688,"test","true",39,"right","congruent","up","center",111,"11","1","Meditation","High","Medium","HIgh","FAM"
1093,39,1093,"37,39",1093,"test","true",39,"right","incongruent","up","nocue",112,"11","1","Meditation","High","Medium","HIgh","FAM"
860,39,860,"37,39",860,"test","true",39,"right","incongruent","down","center",113,"11","1","Meditation","High","Medium","HIgh","FAM"
632,37,632,"37,39",632,"test","true",37,"left","incongruent","down","spatial",114,"11","1","Meditation","High","Medium","HIgh","FAM"
794,39,794,"37,39",794,"test","true",39,"right","neutral","down","double",115,"11","1","Meditation","High","Medium","HIgh","FAM"
585,37,585,"37,39",585,"test","true",37,"left","incongruent","up","spatial",116,"11","1","Meditation","High","Medium","HIgh","FAM"
583,39,583,"37,39",583,"test","true",39,"right","congruent","down","double",117,"11","1","Meditation","High","Medium","HIgh","FAM"
671,37,671,"37,39",671,"test","true",37,"left","congruent","up","spatial",118,"11","1","Meditation","High","Medium","HIgh","FAM"
1018,37,1018,"37,39",1018,"test","true",37,"left","incongruent","down","double",119,"11","1","Meditation","High","Medium","HIgh","FAM"
962,37,962,"37,39",962,"test","true",37,"left","incongruent","up","nocue",120,"11","1","Meditation","High","Medium","HIgh","FAM"
1043,39,1043,"37,39",1043,"test","true",39,"right","incongruent","up","double",121,"11","1","Meditation","High","Medium","HIgh","FAM"
619,37,619,"37,39",619,"test","true",37,"left","neutral","up","spatial",122,"11","1","Meditation","High","Medium","HIgh","FAM"
774,39,774,"37,39",774,"test","true",39,"right","neutral","up","center",123,"11","1","Meditation","High","Medium","HIgh","FAM"
682,39,682,"37,39",682,"test","true",39,"right","neutral","up","double",124,"11","1","Meditation","High","Medium","HIgh","FAM"
1098,39,1098,"37,39",1098,"test","true",39,"right","incongruent","down","nocue",125,"11","1","Meditation","High","Medium","HIgh","FAM"
903,37,903,"37,39",903,"test","true",37,"left","neutral","up","center",126,"11","1","Meditation","High","Medium","HIgh","FAM"
656,37,656,"37,39",656,"test","true",37,"left","congruent","down","spatial",127,"11","1","Meditation","High","Medium","HIgh","FAM"
624,39,624,"37,39",624,"test","true",39,"right","congruent","down","spatial",128,"11","1","Meditation","High","Medium","HIgh","FAM"
849,39,849,"37,39",849,"test","true",39,"right","incongruent","down","spatial",129,"11","1","Meditation","High","Medium","HIgh","FAM"
852,37,852,"37,39",852,"test","true",37,"left","neutral","up","double",130,"11","1","Meditation","High","Medium","HIgh","FAM"
642,39,642,"37,39",642,"test","true",39,"right","neutral","up","spatial",131,"11","1","Meditation","High","Medium","HIgh","FAM"
587,39,587,"37,39",587,"test","true",39,"right","congruent","up","spatial",132,"11","1","Meditation","High","Medium","HIgh","FAM"
814,37,814,"37,39",814,"test","true",37,"left","congruent","up","center",133,"11","1","Meditation","High","Medium","HIgh","FAM"
698,37,698,"37,39",698,"test","true",37,"left","neutral","up","nocue",134,"11","1","Meditation","High","Medium","HIgh","FAM"
658,37,658,"37,39",658,"test","true",37,"left","congruent","up","nocue",135,"11","1","Meditation","High","Medium","HIgh","FAM"
785,39,785,"37,39",785,"test","true",39,"right","neutral","down","center",136,"11","1","Meditation","High","Medium","HIgh","FAM"
720,39,720,"37,39",720,"test","true",39,"right","congruent","down","center",137,"11","1","Meditation","High","Medium","HIgh","FAM"
998,37,998,"37,39",998,"test","true",37,"left","incongruent","down","nocue",138,"11","1","Meditation","High","Medium","HIgh","FAM"
765,39,765,"37,39",765,"test","true",39,"right","neutral","up","nocue",139,"11","1","Meditation","High","Medium","HIgh","FAM"
721,39,721,"37,39",721,"test","true",39,"right","congruent","up","nocue",140,"11","1","Meditation","High","Medium","HIgh","FAM"
853,37,853,"37,39",853,"test","true",37,"left","neutral","down","spatial",141,"11","1","Meditation","High","Medium","HIgh","FAM"
686,39,686,"37,39",686,"test","true",39,"right","congruent","down","nocue",142,"11","1","Meditation","High","Medium","HIgh","FAM"
1174,37,1174,"37,39",1174,"test","true",37,"left","incongruent","down","center",143,"11","1","Meditation","High","Medium","HIgh","FAM"
1266,39,1266,"37,39",1266,"test","true",39,"right","incongruent","up","center",144,"11","1","Meditation","High","Medium","HIgh","FAM"
1115,37,1115,"37,39",1115,"test","true",37,"left","congruent","up","double",1,"11","2","Meditation","High","Medium","HIgh","FAM"
1076,39,1076,"37,39",1076,"test","true",39,"right","neutral","down","nocue",2,"11","2","Meditation","High","Medium","HIgh","FAM"
989,37,989,"37,39",989,"test","true",37,"left","neutral","down","double",3,"11","2","Meditation","High","Medium","HIgh","FAM"
767,39,767,"37,39",767,"test","true",39,"right","incongruent","up","double",4,"11","2","Meditation","High","Medium","HIgh","FAM"
765,37,765,"37,39",765,"test","true",37,"left","neutral","down","nocue",5,"11","2","Meditation","High","Medium","HIgh","FAM"
833,39,833,"37,39",833,"test","true",39,"right","congruent","up","nocue",6,"11","2","Meditation","High","Medium","HIgh","FAM"
760,39,760,"37,39",760,"test","true",39,"right","congruent","up","center",7,"11","2","Meditation","High","Medium","HIgh","FAM"
854,39,854,"37,39",854,"test","true",39,"right","congruent","down","double",8,"11","2","Meditation","High","Medium","HIgh","FAM"
920,37,920,"37,39",920,"test","true",37,"left","congruent","down","spatial",9,"11","2","Meditation","High","Medium","HIgh","FAM"
929,37,929,"37,39",929,"test","true",37,"left","incongruent","down","double",10,"11","2","Meditation","High","Medium","HIgh","FAM"
770,39,770,"37,39",770,"test","true",39,"right","neutral","up","double",11,"11","2","Meditation","High","Medium","HIgh","FAM"
771,37,771,"37,39",771,"test","true",37,"left","congruent","up","center",12,"11","2","Meditation","High","Medium","HIgh","FAM"
608,37,608,"37,39",608,"test","true",37,"left","neutral","up","nocue",13,"11","2","Meditation","High","Medium","HIgh","FAM"
912,37,912,"37,39",912,"test","true",37,"left","incongruent","up","nocue",14,"11","2","Meditation","High","Medium","HIgh","FAM"
856,39,856,"37,39",856,"test","true",39,"right","congruent","down","spatial",15,"11","2","Meditation","High","Medium","HIgh","FAM"
530,37,530,"37,39",530,"test","true",37,"left","neutral","up","spatial",16,"11","2","Meditation","High","Medium","HIgh","FAM"
627,39,627,"37,39",627,"test","true",39,"right","incongruent","up","spatial",17,"11","2","Meditation","High","Medium","HIgh","FAM"
630,37,630,"37,39",630,"test","true",37,"left","incongruent","up","spatial",18,"11","2","Meditation","High","Medium","HIgh","FAM"
817,37,817,"37,39",817,"test","true",37,"left","neutral","up","double",19,"11","2","Meditation","High","Medium","HIgh","FAM"
548,39,548,"37,39",548,"test","true",39,"right","congruent","up","double",20,"11","2","Meditation","High","Medium","HIgh","FAM"
935,37,935,"37,39",935,"test","true",37,"left","congruent","down","double",21,"11","2","Meditation","High","Medium","HIgh","FAM"
675,39,675,"37,39",675,"test","true",39,"right","incongruent","up","center",22,"11","2","Meditation","High","Medium","HIgh","FAM"
710,39,710,"37,39",710,"test","true",39,"right","congruent","down","nocue",23,"11","2","Meditation","High","Medium","HIgh","FAM"
574,37,574,"37,39",574,"test","true",37,"left","incongruent","down","spatial",24,"11","2","Meditation","High","Medium","HIgh","FAM"
809,37,809,"37,39",809,"test","true",37,"left","incongruent","up","center",25,"11","2","Meditation","High","Medium","HIgh","FAM"
902,37,902,"37,39",902,"test","true",37,"left","congruent","up","nocue",26,"11","2","Meditation","High","Medium","HIgh","FAM"
1178,39,1178,"37,39",1178,"test","true",39,"right","incongruent","down","center",27,"11","2","Meditation","High","Medium","HIgh","FAM"
732,39,732,"37,39",732,"test","true",39,"right","neutral","down","center",28,"11","2","Meditation","High","Medium","HIgh","FAM"
547,37,547,"37,39",547,"test","true",37,"left","neutral","down","spatial",29,"11","2","Meditation","High","Medium","HIgh","FAM"
702,37,702,"37,39",702,"test","true",37,"left","incongruent","down","nocue",30,"11","2","Meditation","High","Medium","HIgh","FAM"
766,39,766,"37,39",766,"test","true",39,"right","congruent","down","center",31,"11","2","Meditation","High","Medium","HIgh","FAM"
571,37,571,"37,39",571,"test","true",37,"left","neutral","down","center",32,"11","2","Meditation","High","Medium","HIgh","FAM"
725,37,725,"37,39",725,"test","true",37,"left","incongruent","down","center",33,"11","2","Meditation","High","Medium","HIgh","FAM"
544,39,544,"37,39",544,"test","true",39,"right","neutral","down","spatial",34,"11","2","Meditation","High","Medium","HIgh","FAM"
681,37,681,"37,39",681,"test","true",37,"left","congruent","down","nocue",35,"11","2","Meditation","High","Medium","HIgh","FAM"
816,39,816,"37,39",816,"test","true",39,"right","incongruent","up","nocue",36,"11","2","Meditation","High","Medium","HIgh","FAM"
522,37,522,"37,39",522,"test","true",37,"left","congruent","up","spatial",37,"11","2","Meditation","High","Medium","HIgh","FAM"
1069,39,1069,"37,39",1069,"test","true",39,"right","incongruent","down","nocue",38,"11","2","Meditation","High","Medium","HIgh","FAM"
597,39,597,"37,39",597,"test","true",39,"right","incongruent","down","spatial",39,"11","2","Meditation","High","Medium","HIgh","FAM"
976,37,976,"37,39",976,"test","true",37,"left","neutral","up","center",40,"11","2","Meditation","High","Medium","HIgh","FAM"
610,39,610,"37,39",610,"test","true",39,"right","neutral","up","nocue",41,"11","2","Meditation","High","Medium","HIgh","FAM"
539,39,539,"37,39",539,"test","true",39,"right","neutral","up","spatial",42,"11","2","Meditation","High","Medium","HIgh","FAM"
814,37,814,"37,39",814,"test","true",37,"left","congruent","down","center",43,"11","2","Meditation","High","Medium","HIgh","FAM"
743,39,743,"37,39",743,"test","true",39,"right","congruent","up","spatial",44,"11","2","Meditation","High","Medium","HIgh","FAM"
629,39,629,"37,39",629,"test","true",39,"right","neutral","up","center",45,"11","2","Meditation","High","Medium","HIgh","FAM"
643,39,643,"37,39",643,"test","true",39,"right","incongruent","down","double",46,"11","2","Meditation","High","Medium","HIgh","FAM"
865,37,865,"37,39",865,"test","true",37,"left","incongruent","up","double",47,"11","2","Meditation","High","Medium","HIgh","FAM"
556,39,556,"37,39",556,"test","true",39,"right","neutral","down","double",48,"11","2","Meditation","High","Medium","HIgh","FAM"
765,37,765,"37,39",765,"test","true",37,"left","incongruent","up","center",49,"11","2","Meditation","High","Medium","HIgh","FAM"
768,37,768,"37,39",768,"test","true",37,"left","congruent","down","center",50,"11","2","Meditation","High","Medium","HIgh","FAM"
562,39,562,"37,39",562,"test","true",39,"right","neutral","down","spatial",51,"11","2","Meditation","High","Medium","HIgh","FAM"
859,39,859,"37,39",859,"test","true",39,"right","neutral","down","nocue",52,"11","2","Meditation","High","Medium","HIgh","FAM"
665,39,665,"37,39",665,"test","true",39,"right","congruent","down","nocue",53,"11","2","Meditation","High","Medium","HIgh","FAM"
903,37,903,"37,39",903,"test","true",37,"left","neutral","up","center",54,"11","2","Meditation","High","Medium","HIgh","FAM"
670,39,670,"37,39",670,"test","true",39,"right","congruent","up","center",55,"11","2","Meditation","High","Medium","HIgh","FAM"
717,39,717,"37,39",717,"test","true",39,"right","neutral","down","center",56,"11","2","Meditation","High","Medium","HIgh","FAM"
761,39,761,"37,39",761,"test","true",39,"right","neutral","down","double",57,"11","2","Meditation","High","Medium","HIgh","FAM"
943,37,943,"37,39",943,"test","true",37,"left","congruent","up","center",58,"11","2","Meditation","High","Medium","HIgh","FAM"
788,37,788,"37,39",788,"test","true",37,"left","congruent","up","double",59,"11","2","Meditation","High","Medium","HIgh","FAM"
545,37,545,"37,39",545,"test","true",37,"left","neutral","down","spatial",60,"11","2","Meditation","High","Medium","HIgh","FAM"
776,39,776,"37,39",776,"test","true",39,"right","congruent","down","double",61,"11","2","Meditation","High","Medium","HIgh","FAM"
635,39,635,"37,39",635,"test","true",39,"right","neutral","up","nocue",62,"11","2","Meditation","High","Medium","HIgh","FAM"
626,37,626,"37,39",626,"test","true",37,"left","congruent","down","spatial",63,"11","2","Meditation","High","Medium","HIgh","FAM"
731,37,731,"37,39",731,"test","true",37,"left","incongruent","up","double",64,"11","2","Meditation","High","Medium","HIgh","FAM"
680,39,680,"37,39",680,"test","true",39,"right","incongruent","down","spatial",65,"11","2","Meditation","High","Medium","HIgh","FAM"
724,37,724,"37,39",724,"test","true",37,"left","neutral","down","nocue",66,"11","2","Meditation","High","Medium","HIgh","FAM"
625,37,625,"37,39",625,"test","true",37,"left","congruent","up","spatial",67,"11","2","Meditation","High","Medium","HIgh","FAM"
794,39,794,"37,39",794,"test","true",39,"right","congruent","down","center",68,"11","2","Meditation","High","Medium","HIgh","FAM"
686,37,686,"37,39",686,"test","true",37,"left","congruent","up","nocue",69,"11","2","Meditation","High","Medium","HIgh","FAM"
808,39,808,"37,39",808,"test","true",39,"right","incongruent","up","center",70,"11","2","Meditation","High","Medium","HIgh","FAM"
648,37,648,"37,39",648,"test","true",37,"left","incongruent","down","double",71,"11","2","Meditation","High","Medium","HIgh","FAM"
950,37,950,"37,39",950,"test","true",37,"left","incongruent","down","nocue",72,"11","2","Meditation","High","Medium","HIgh","FAM"
603,37,603,"37,39",603,"test","true",37,"left","incongruent","up","spatial",73,"11","2","Meditation","High","Medium","HIgh","FAM"
760,37,760,"37,39",760,"test","true",37,"left","congruent","down","nocue",74,"11","2","Meditation","High","Medium","HIgh","FAM"
746,37,746,"37,39",746,"test","true",37,"left","incongruent","down","center",75,"11","2","Meditation","High","Medium","HIgh","FAM"
769,39,769,"37,39",769,"test","true",39,"right","neutral","up","double",76,"11","2","Meditation","High","Medium","HIgh","FAM"
852,39,852,"37,39",852,"test","true",39,"right","incongruent","up","nocue",77,"11","2","Meditation","High","Medium","HIgh","FAM"
899,39,899,"37,39",899,"test","true",39,"right","incongruent","down","double",78,"11","2","Meditation","High","Medium","HIgh","FAM"
1090,37,1090,"37,39",1090,"test","true",37,"left","neutral","down","center",79,"11","2","Meditation","High","Medium","HIgh","FAM"
811,39,811,"37,39",811,"test","true",39,"right","incongruent","down","nocue",80,"11","2","Meditation","High","Medium","HIgh","FAM"
783,37,783,"37,39",783,"test","true",37,"left","neutral","up","nocue",81,"11","2","Meditation","High","Medium","HIgh","FAM"
552,39,552,"37,39",552,"test","true",39,"right","congruent","up","spatial",82,"11","2","Meditation","High","Medium","HIgh","FAM"
807,39,807,"37,39",807,"test","true",39,"right","neutral","up","center",83,"11","2","Meditation","High","Medium","HIgh","FAM"
896,37,896,"37,39",896,"test","true",37,"left","congruent","down","double",84,"11","2","Meditation","High","Medium","HIgh","FAM"
705,39,705,"37,39",705,"test","true",39,"right","congruent","up","nocue",85,"11","2","Meditation","High","Medium","HIgh","FAM"
491,39,491,"37,39",491,"test","true",39,"right","neutral","up","spatial",86,"11","2","Meditation","High","Medium","HIgh","FAM"
701,39,701,"37,39",701,"test","true",39,"right","congruent","down","spatial",87,"11","2","Meditation","High","Medium","HIgh","FAM"
782,37,782,"37,39",782,"test","true",37,"left","incongruent","up","nocue",88,"11","2","Meditation","High","Medium","HIgh","FAM"
580,39,580,"37,39",580,"test","true",39,"right","incongruent","up","spatial",89,"11","2","Meditation","High","Medium","HIgh","FAM"
926,39,926,"37,39",926,"test","true",39,"right","incongruent","down","center",90,"11","2","Meditation","High","Medium","HIgh","FAM"
648,37,648,"37,39",648,"test","true",37,"left","neutral","up","spatial",91,"11","2","Meditation","High","Medium","HIgh","FAM"
724,37,724,"37,39",724,"test","true",37,"left","incongruent","down","spatial",92,"11","2","Meditation","High","Medium","HIgh","FAM"
839,39,839,"37,39",839,"test","true",39,"right","incongruent","up","double",93,"11","2","Meditation","High","Medium","HIgh","FAM"
814,39,814,"37,39",814,"test","true",39,"right","congruent","up","double",94,"11","2","Meditation","High","Medium","HIgh","FAM"
774,37,774,"37,39",774,"test","true",37,"left","neutral","up","double",95,"11","2","Meditation","High","Medium","HIgh","FAM"
935,37,935,"37,39",935,"test","true",37,"left","neutral","down","double",96,"11","2","Meditation","High","Medium","HIgh","FAM"
782,37,782,"37,39",782,"test","true",37,"left","incongruent","up","nocue",97,"11","2","Meditation","High","Medium","HIgh","FAM"
1189,37,1189,"37,39",1189,"test","true",37,"left","congruent","down","spatial",98,"11","2","Meditation","High","Medium","HIgh","FAM"
775,39,775,"37,39",775,"test","true",39,"right","neutral","down","double",99,"11","2","Meditation","High","Medium","HIgh","FAM"
559,37,559,"37,39",559,"test","true",37,"left","congruent","down","double",100,"11","2","Meditation","High","Medium","HIgh","FAM"
943,37,943,"37,39",943,"test","true",37,"left","incongruent","down","double",101,"11","2","Meditation","High","Medium","HIgh","FAM"
619,39,619,"37,39",619,"test","true",39,"right","congruent","down","spatial",102,"11","2","Meditation","High","Medium","HIgh","FAM"
851,39,851,"37,39",851,"test","true",39,"right","congruent","up","center",103,"11","2","Meditation","High","Medium","HIgh","FAM"
846,39,846,"37,39",846,"test","true",39,"right","congruent","down","center",104,"11","2","Meditation","High","Medium","HIgh","FAM"
690,39,690,"37,39",690,"test","true",39,"right","congruent","up","nocue",105,"11","2","Meditation","High","Medium","HIgh","FAM"
764,37,764,"37,39",764,"test","true",37,"left","incongruent","up","double",106,"11","2","Meditation","High","Medium","HIgh","FAM"
615,37,615,"37,39",615,"test","true",37,"left","neutral","up","center",107,"11","2","Meditation","High","Medium","HIgh","FAM"
1050,37,1050,"37,39",1050,"test","true",37,"left","neutral","down","nocue",108,"11","2","Meditation","High","Medium","HIgh","FAM"
923,39,923,"37,39",923,"test","true",39,"right","incongruent","up","double",109,"11","2","Meditation","High","Medium","HIgh","FAM"
759,39,759,"37,39",759,"test","true",39,"right","congruent","down","nocue",110,"11","2","Meditation","High","Medium","HIgh","FAM"
972,39,972,"37,39",972,"test","true",39,"right","incongruent","up","nocue",111,"11","2","Meditation","High","Medium","HIgh","FAM"
708,37,708,"37,39",708,"test","true",37,"left","incongruent","up","spatial",112,"11","2","Meditation","High","Medium","HIgh","FAM"
824,37,824,"37,39",824,"test","true",37,"left","congruent","down","center",113,"11","2","Meditation","High","Medium","HIgh","FAM"
792,37,792,"37,39",792,"test","true",37,"left","neutral","down","double",114,"11","2","Meditation","High","Medium","HIgh","FAM"
901,39,901,"37,39",901,"test","true",39,"right","neutral","down","center",115,"11","2","Meditation","High","Medium","HIgh","FAM"
846,37,846,"37,39",846,"test","true",37,"left","congruent","up","double",116,"11","2","Meditation","High","Medium","HIgh","FAM"
1015,39,1015,"37,39",1015,"test","true",39,"right","incongruent","down","double",117,"11","2","Meditation","High","Medium","HIgh","FAM"
688,37,688,"37,39",688,"test","true",37,"left","incongruent","up","center",118,"11","2","Meditation","High","Medium","HIgh","FAM"
720,39,720,"37,39",720,"test","true",39,"right","neutral","down","nocue",119,"11","2","Meditation","High","Medium","HIgh","FAM"
735,39,735,"37,39",735,"test","true",39,"right","neutral","up","spatial",120,"11","2","Meditation","High","Medium","HIgh","FAM"
841,39,841,"37,39",841,"test","true",39,"right","incongruent","down","nocue",121,"11","2","Meditation","High","Medium","HIgh","FAM"
1021,37,1021,"37,39",1021,"test","true",37,"left","incongruent","down","center",122,"11","2","Meditation","High","Medium","HIgh","FAM"
919,37,919,"37,39",919,"test","true",37,"left","incongruent","down","spatial",123,"11","2","Meditation","High","Medium","HIgh","FAM"
835,37,835,"37,39",835,"test","true",37,"left","neutral","up","nocue",124,"11","2","Meditation","High","Medium","HIgh","FAM"
881,39,881,"37,39",881,"test","true",39,"right","incongruent","up","center",125,"11","2","Meditation","High","Medium","HIgh","FAM"
985,37,985,"37,39",985,"test","true",37,"left","congruent","down","nocue",126,"11","2","Meditation","High","Medium","HIgh","FAM"
646,39,646,"37,39",646,"test","true",39,"right","incongruent","up","spatial",127,"11","2","Meditation","High","Medium","HIgh","FAM"
778,39,778,"37,39",778,"test","true",39,"right","neutral","up","center",128,"11","2","Meditation","High","Medium","HIgh","FAM"
800,37,800,"37,39",800,"test","true",37,"left","neutral","down","center",129,"11","2","Meditation","High","Medium","HIgh","FAM"
704,37,704,"37,39",704,"test","true",37,"left","congruent","up","spatial",130,"11","2","Meditation","High","Medium","HIgh","FAM"
770,39,770,"37,39",770,"test","true",39,"right","neutral","up","double",131,"11","2","Meditation","High","Medium","HIgh","FAM"
939,39,939,"37,39",939,"test","true",39,"right","congruent","up","double",132,"11","2","Meditation","High","Medium","HIgh","FAM"
764,37,764,"37,39",764,"test","true",37,"left","neutral","down","spatial",133,"11","2","Meditation","High","Medium","HIgh","FAM"
794,39,794,"37,39",794,"test","true",39,"right","congruent","up","spatial",134,"11","2","Meditation","High","Medium","HIgh","FAM"
816,39,816,"37,39",816,"test","true",39,"right","congruent","down","double",135,"11","2","Meditation","High","Medium","HIgh","FAM"
699,39,699,"37,39",699,"test","true",39,"right","incongruent","down","spatial",136,"11","2","Meditation","High","Medium","HIgh","FAM"
780,37,780,"37,39",780,"test","true",37,"left","congruent","up","nocue",137,"11","2","Meditation","High","Medium","HIgh","FAM"
624,37,624,"37,39",624,"test","true",37,"left","neutral","up","double",138,"11","2","Meditation","High","Medium","HIgh","FAM"
961,39,961,"37,39",961,"test","true",39,"right","incongruent","down","center",139,"11","2","Meditation","High","Medium","HIgh","FAM"
670,37,670,"37,39",670,"test","true",37,"left","neutral","up","spatial",140,"11","2","Meditation","High","Medium","HIgh","FAM"
776,39,776,"37,39",776,"test","true",39,"right","neutral","down","spatial",141,"11","2","Meditation","High","Medium","HIgh","FAM"
715,39,715,"37,39",715,"test","true",39,"right","neutral","up","nocue",142,"11","2","Meditation","High","Medium","HIgh","FAM"
802,37,802,"37,39",802,"test","true",37,"left","congruent","up","center",143,"11","2","Meditation","High","Medium","HIgh","FAM"
1059,37,1059,"37,39",1059,"test","true",37,"left","incongruent","down","nocue",144,"11","2","Meditation","High","Medium","HIgh","FAM"
747,39,747,"37,39",747,"test","true",39,"right","congruent","down","nocue",1,"12","1","Meditation","Low","Low","HIgh","FAM"
789,37,789,"37,39",789,"test","true",37,"left","incongruent","down","double",2,"12","1","Meditation","Low","Low","HIgh","FAM"
681,39,681,"37,39",681,"test","true",39,"right","congruent","up","spatial",3,"12","1","Meditation","Low","Low","HIgh","FAM"
814,37,814,"37,39",814,"test","true",37,"left","incongruent","down","center",4,"12","1","Meditation","Low","Low","HIgh","FAM"
817,37,817,"37,39",817,"test","true",37,"left","incongruent","down","spatial",5,"12","1","Meditation","Low","Low","HIgh","FAM"
852,37,852,"37,39",852,"test","true",37,"left","congruent","up","nocue",6,"12","1","Meditation","Low","Low","HIgh","FAM"
794,37,794,"37,39",794,"test","true",37,"left","incongruent","up","nocue",7,"12","1","Meditation","Low","Low","HIgh","FAM"
819,37,819,"37,39",819,"test","true",37,"left","neutral","down","nocue",8,"12","1","Meditation","Low","Low","HIgh","FAM"
809,39,809,"37,39",809,"test","true",39,"right","incongruent","down","center",9,"12","1","Meditation","Low","Low","HIgh","FAM"
697,37,697,"37,39",697,"test","true",37,"left","incongruent","up","double",10,"12","1","Meditation","Low","Low","HIgh","FAM"
589,39,589,"37,39",589,"test","true",39,"right","congruent","up","double",11,"12","1","Meditation","Low","Low","HIgh","FAM"
753,37,753,"37,39",753,"test","true",37,"left","congruent","down","nocue",12,"12","1","Meditation","Low","Low","HIgh","FAM"
727,39,727,"37,39",727,"test","true",39,"right","neutral","down","nocue",13,"12","1","Meditation","Low","Low","HIgh","FAM"
803,39,803,"37,39",803,"test","true",39,"right","incongruent","up","nocue",14,"12","1","Meditation","Low","Low","HIgh","FAM"
785,39,785,"37,39",785,"test","true",39,"right","incongruent","down","spatial",15,"12","1","Meditation","Low","Low","HIgh","FAM"
734,39,734,"37,39",734,"test","true",39,"right","congruent","down","double",16,"12","1","Meditation","Low","Low","HIgh","FAM"
688,37,688,"37,39",688,"test","true",37,"left","congruent","up","double",17,"12","1","Meditation","Low","Low","HIgh","FAM"
638,37,638,"37,39",638,"test","true",37,"left","neutral","up","center",18,"12","1","Meditation","Low","Low","HIgh","FAM"
586,37,586,"37,39",586,"test","true",37,"left","neutral","up","spatial",19,"12","1","Meditation","Low","Low","HIgh","FAM"
736,39,736,"37,39",736,"test","true",39,"right","neutral","up","center",20,"12","1","Meditation","Low","Low","HIgh","FAM"
713,37,713,"37,39",713,"test","true",37,"left","neutral","down","double",21,"12","1","Meditation","Low","Low","HIgh","FAM"
654,39,654,"37,39",654,"test","true",39,"right","neutral","up","double",22,"12","1","Meditation","Low","Low","HIgh","FAM"
718,37,718,"37,39",718,"test","true",37,"left","neutral","up","double",23,"12","1","Meditation","Low","Low","HIgh","FAM"
668,37,668,"37,39",668,"test","true",37,"left","congruent","up","spatial",24,"12","1","Meditation","Low","Low","HIgh","FAM"
699,37,699,"37,39",699,"test","true",37,"left","neutral","down","spatial",25,"12","1","Meditation","Low","Low","HIgh","FAM"
778,37,778,"37,39",778,"test","true",37,"left","neutral","up","nocue",26,"12","1","Meditation","Low","Low","HIgh","FAM"
887,39,887,"37,39",887,"test","true",39,"right","congruent","up","center",27,"12","1","Meditation","Low","Low","HIgh","FAM"
713,39,713,"37,39",713,"test","true",39,"right","congruent","down","spatial",28,"12","1","Meditation","Low","Low","HIgh","FAM"
673,39,673,"37,39",673,"test","true",39,"right","congruent","up","nocue",29,"12","1","Meditation","Low","Low","HIgh","FAM"
764,39,764,"37,39",764,"test","true",39,"right","incongruent","down","double",30,"12","1","Meditation","Low","Low","HIgh","FAM"
670,37,670,"37,39",670,"test","true",37,"left","congruent","down","spatial",31,"12","1","Meditation","Low","Low","HIgh","FAM"
647,37,647,"37,39",647,"test","true",37,"left","congruent","down","double",32,"12","1","Meditation","Low","Low","HIgh","FAM"
831,37,831,"37,39",831,"test","true",37,"left","congruent","up","center",33,"12","1","Meditation","Low","Low","HIgh","FAM"
728,39,728,"37,39",728,"test","true",39,"right","neutral","down","spatial",34,"12","1","Meditation","Low","Low","HIgh","FAM"
597,39,597,"37,39",597,"test","true",39,"right","neutral","up","spatial",35,"12","1","Meditation","Low","Low","HIgh","FAM"
780,37,780,"37,39",780,"test","true",37,"left","incongruent","up","center",36,"12","1","Meditation","Low","Low","HIgh","FAM"
632,39,632,"37,39",632,"test","true",39,"right","incongruent","up","center",37,"12","1","Meditation","Low","Low","HIgh","FAM"
741,37,741,"37,39",741,"test","true",37,"left","neutral","down","center",38,"12","1","Meditation","Low","Low","HIgh","FAM"
596,39,596,"37,39",596,"test","true",39,"right","neutral","up","nocue",39,"12","1","Meditation","Low","Low","HIgh","FAM"
754,39,754,"37,39",754,"test","true",39,"right","incongruent","down","nocue",40,"12","1","Meditation","Low","Low","HIgh","FAM"
836,39,836,"37,39",836,"test","true",39,"right","neutral","down","double",41,"12","1","Meditation","Low","Low","HIgh","FAM"
784,39,784,"37,39",784,"test","true",39,"right","congruent","down","center",42,"12","1","Meditation","Low","Low","HIgh","FAM"
803,37,803,"37,39",803,"test","true",37,"left","incongruent","down","nocue",43,"12","1","Meditation","Low","Low","HIgh","FAM"
635,37,635,"37,39",635,"test","true",37,"left","incongruent","up","spatial",44,"12","1","Meditation","Low","Low","HIgh","FAM"
694,39,694,"37,39",694,"test","true",39,"right","neutral","down","center",45,"12","1","Meditation","Low","Low","HIgh","FAM"
697,37,697,"37,39",697,"test","true",37,"left","congruent","down","center",46,"12","1","Meditation","Low","Low","HIgh","FAM"
790,39,790,"37,39",790,"test","true",39,"right","incongruent","up","spatial",47,"12","1","Meditation","Low","Low","HIgh","FAM"
683,39,683,"37,39",683,"test","true",39,"right","incongruent","up","double",48,"12","1","Meditation","Low","Low","HIgh","FAM"
823,39,823,"37,39",823,"test","true",39,"right","incongruent","down","spatial",49,"12","1","Meditation","Low","Low","HIgh","FAM"
780,39,780,"37,39",780,"test","true",39,"right","congruent","down","center",51,"12","1","Meditation","Low","Low","HIgh","FAM"
894,37,894,"37,39",894,"test","true",37,"left","neutral","up","nocue",52,"12","1","Meditation","Low","Low","HIgh","FAM"
831,37,831,"37,39",831,"test","true",37,"left","incongruent","up","double",53,"12","1","Meditation","Low","Low","HIgh","FAM"
730,37,730,"37,39",730,"test","true",37,"left","congruent","up","nocue",54,"12","1","Meditation","Low","Low","HIgh","FAM"
658,37,658,"37,39",658,"test","true",37,"left","neutral","down","center",55,"12","1","Meditation","Low","Low","HIgh","FAM"
692,37,692,"37,39",692,"test","true",37,"left","incongruent","down","nocue",56,"12","1","Meditation","Low","Low","HIgh","FAM"
706,39,706,"37,39",706,"test","true",39,"right","congruent","down","spatial",57,"12","1","Meditation","Low","Low","HIgh","FAM"
912,39,912,"37,39",912,"test","true",39,"right","incongruent","up","center",58,"12","1","Meditation","Low","Low","HIgh","FAM"
602,39,602,"37,39",602,"test","true",39,"right","neutral","up","spatial",59,"12","1","Meditation","Low","Low","HIgh","FAM"
703,39,703,"37,39",703,"test","true",39,"right","congruent","down","nocue",60,"12","1","Meditation","Low","Low","HIgh","FAM"
780,37,780,"37,39",780,"test","true",37,"left","incongruent","up","nocue",61,"12","1","Meditation","Low","Low","HIgh","FAM"
765,37,765,"37,39",765,"test","true",37,"left","incongruent","down","center",62,"12","1","Meditation","Low","Low","HIgh","FAM"
663,37,663,"37,39",663,"test","true",37,"left","congruent","down","spatial",63,"12","1","Meditation","Low","Low","HIgh","FAM"
612,39,612,"37,39",612,"test","true",39,"right","incongruent","down","center",64,"12","1","Meditation","Low","Low","HIgh","FAM"
526,37,526,"37,39",526,"test","true",37,"left","neutral","up","spatial",65,"12","1","Meditation","Low","Low","HIgh","FAM"
695,37,695,"37,39",695,"test","true",37,"left","incongruent","up","spatial",66,"12","1","Meditation","Low","Low","HIgh","FAM"
599,39,599,"37,39",599,"test","true",39,"right","congruent","up","spatial",67,"12","1","Meditation","Low","Low","HIgh","FAM"
753,39,753,"37,39",753,"test","true",39,"right","incongruent","up","nocue",68,"12","1","Meditation","Low","Low","HIgh","FAM"
681,39,681,"37,39",681,"test","true",39,"right","neutral","down","spatial",69,"12","1","Meditation","Low","Low","HIgh","FAM"
660,39,660,"37,39",660,"test","true",39,"right","congruent","up","nocue",70,"12","1","Meditation","Low","Low","HIgh","FAM"
550,39,550,"37,39",550,"test","true",39,"right","neutral","up","double",71,"12","1","Meditation","Low","Low","HIgh","FAM"
730,37,730,"37,39",730,"test","true",37,"left","neutral","down","double",72,"12","1","Meditation","Low","Low","HIgh","FAM"
647,37,647,"37,39",647,"test","true",37,"left","neutral","up","center",73,"12","1","Meditation","Low","Low","HIgh","FAM"
574,37,574,"37,39",574,"test","true",37,"left","neutral","up","double",74,"12","1","Meditation","Low","Low","HIgh","FAM"
810,37,810,"37,39",810,"test","true",37,"left","neutral","down","nocue",75,"12","1","Meditation","Low","Low","HIgh","FAM"
716,39,716,"37,39",716,"test","true",39,"right","neutral","up","center",76,"12","1","Meditation","Low","Low","HIgh","FAM"
709,37,709,"37,39",709,"test","true",37,"left","congruent","up","center",77,"12","1","Meditation","Low","Low","HIgh","FAM"
868,37,868,"37,39",868,"test","true",37,"left","congruent","up","double",78,"12","1","Meditation","Low","Low","HIgh","FAM"
648,39,648,"37,39",648,"test","true",39,"right","congruent","up","center",79,"12","1","Meditation","Low","Low","HIgh","FAM"
790,39,790,"37,39",790,"test","true",39,"right","incongruent","up","double",80,"12","1","Meditation","Low","Low","HIgh","FAM"
587,37,587,"37,39",587,"test","true",37,"left","congruent","up","spatial",81,"12","1","Meditation","Low","Low","HIgh","FAM"
803,37,803,"37,39",803,"test","true",37,"left","incongruent","down","spatial",82,"12","1","Meditation","Low","Low","HIgh","FAM"
817,39,817,"37,39",817,"test","true",39,"right","congruent","down","double",83,"12","1","Meditation","Low","Low","HIgh","FAM"
621,39,621,"37,39",621,"test","true",39,"right","congruent","up","double",84,"12","1","Meditation","Low","Low","HIgh","FAM"
795,37,795,"37,39",795,"test","true",37,"left","incongruent","down","double",85,"12","1","Meditation","Low","Low","HIgh","FAM"
632,39,632,"37,39",632,"test","true",39,"right","incongruent","up","spatial",86,"12","1","Meditation","Low","Low","HIgh","FAM"
827,39,827,"37,39",827,"test","true",39,"right","incongruent","down","double",87,"12","1","Meditation","Low","Low","HIgh","FAM"
942,39,942,"37,39",942,"test","true",39,"right","incongruent","down","nocue",88,"12","1","Meditation","Low","Low","HIgh","FAM"
896,37,896,"37,39",896,"test","true",37,"left","incongruent","up","center",89,"12","1","Meditation","Low","Low","HIgh","FAM"
702,39,702,"37,39",702,"test","true",39,"right","neutral","down","center",90,"12","1","Meditation","Low","Low","HIgh","FAM"
754,37,754,"37,39",754,"test","true",37,"left","congruent","down","nocue",91,"12","1","Meditation","Low","Low","HIgh","FAM"
693,37,693,"37,39",693,"test","true",37,"left","congruent","down","double",92,"12","1","Meditation","Low","Low","HIgh","FAM"
749,39,749,"37,39",749,"test","true",39,"right","neutral","up","nocue",93,"12","1","Meditation","Low","Low","HIgh","FAM"
673,37,673,"37,39",673,"test","true",37,"left","neutral","down","spatial",94,"12","1","Meditation","Low","Low","HIgh","FAM"
708,39,708,"37,39",708,"test","true",39,"right","neutral","down","nocue",95,"12","1","Meditation","Low","Low","HIgh","FAM"
761,39,761,"37,39",761,"test","true",39,"right","neutral","down","double",96,"12","1","Meditation","Low","Low","HIgh","FAM"
756,37,756,"37,39",756,"test","true",37,"left","congruent","down","double",97,"12","1","Meditation","Low","Low","HIgh","FAM"
842,39,842,"37,39",842,"test","true",39,"right","incongruent","up","nocue",98,"12","1","Meditation","Low","Low","HIgh","FAM"
739,39,739,"37,39",739,"test","true",39,"right","incongruent","down","center",99,"12","1","Meditation","Low","Low","HIgh","FAM"
777,37,777,"37,39",777,"test","true",37,"left","incongruent","up","double",100,"12","1","Meditation","Low","Low","HIgh","FAM"
738,39,738,"37,39",738,"test","true",39,"right","incongruent","up","center",101,"12","1","Meditation","Low","Low","HIgh","FAM"
674,37,674,"37,39",674,"test","true",37,"left","neutral","down","double",102,"12","1","Meditation","Low","Low","HIgh","FAM"
612,39,612,"37,39",612,"test","true",39,"right","neutral","up","center",103,"12","1","Meditation","Low","Low","HIgh","FAM"
710,37,710,"37,39",710,"test","true",37,"left","neutral","up","nocue",104,"12","1","Meditation","Low","Low","HIgh","FAM"
682,39,682,"37,39",682,"test","true",39,"right","neutral","down","spatial",105,"12","1","Meditation","Low","Low","HIgh","FAM"
761,37,761,"37,39",761,"test","true",37,"left","incongruent","down","spatial",106,"12","1","Meditation","Low","Low","HIgh","FAM"
741,37,741,"37,39",741,"test","true",37,"left","neutral","up","center",107,"12","1","Meditation","Low","Low","HIgh","FAM"
924,39,924,"37,39",924,"test","true",39,"right","incongruent","down","spatial",108,"12","1","Meditation","Low","Low","HIgh","FAM"
656,39,656,"37,39",656,"test","true",39,"right","congruent","up","nocue",109,"12","1","Meditation","Low","Low","HIgh","FAM"
635,39,635,"37,39",635,"test","true",39,"right","congruent","up","center",110,"12","1","Meditation","Low","Low","HIgh","FAM"
626,39,626,"37,39",626,"test","true",39,"right","neutral","up","nocue",111,"12","1","Meditation","Low","Low","HIgh","FAM"
644,37,644,"37,39",644,"test","true",37,"left","congruent","down","nocue",112,"12","1","Meditation","Low","Low","HIgh","FAM"
638,37,638,"37,39",638,"test","true",37,"left","congruent","down","spatial",113,"12","1","Meditation","Low","Low","HIgh","FAM"
709,39,709,"37,39",709,"test","true",39,"right","neutral","down","center",114,"12","1","Meditation","Low","Low","HIgh","FAM"
528,37,528,"37,39",528,"test","true",37,"left","congruent","up","spatial",115,"12","1","Meditation","Low","Low","HIgh","FAM"
656,39,656,"37,39",656,"test","true",39,"right","congruent","down","spatial",116,"12","1","Meditation","Low","Low","HIgh","FAM"
942,37,942,"37,39",942,"test","true",37,"left","incongruent","down","double",117,"12","1","Meditation","Low","Low","HIgh","FAM"
758,39,758,"37,39",758,"test","true",39,"right","neutral","up","double",118,"12","1","Meditation","Low","Low","HIgh","FAM"
767,39,767,"37,39",767,"test","true",39,"right","incongruent","down","nocue",119,"12","1","Meditation","Low","Low","HIgh","FAM"
808,37,808,"37,39",808,"test","true",37,"left","incongruent","up","nocue",120,"12","1","Meditation","Low","Low","HIgh","FAM"
678,39,678,"37,39",678,"test","true",39,"right","neutral","down","double",121,"12","1","Meditation","Low","Low","HIgh","FAM"
616,37,616,"37,39",616,"test","true",37,"left","congruent","up","nocue",122,"12","1","Meditation","Low","Low","HIgh","FAM"
622,39,622,"37,39",622,"test","true",39,"right","congruent","down","center",123,"12","1","Meditation","Low","Low","HIgh","FAM"
651,39,651,"37,39",651,"test","true",39,"right","congruent","down","double",124,"12","1","Meditation","Low","Low","HIgh","FAM"
678,37,678,"37,39",678,"test","true",37,"left","neutral","down","spatial",125,"12","1","Meditation","Low","Low","HIgh","FAM"
545,39,545,"37,39",545,"test","true",39,"right","incongruent","up","spatial",126,"12","1","Meditation","Low","Low","HIgh","FAM"
676,39,676,"37,39",676,"test","true",39,"right","congruent","up","spatial",127,"12","1","Meditation","Low","Low","HIgh","FAM"
681,37,681,"37,39",681,"test","true",37,"left","neutral","up","double",128,"12","1","Meditation","Low","Low","HIgh","FAM"
705,37,705,"37,39",705,"test","true",37,"left","incongruent","up","spatial",129,"12","1","Meditation","Low","Low","HIgh","FAM"
769,39,769,"37,39",769,"test","true",39,"right","neutral","down","nocue",130,"12","1","Meditation","Low","Low","HIgh","FAM"
718,37,718,"37,39",718,"test","true",37,"left","congruent","down","center",131,"12","1","Meditation","Low","Low","HIgh","FAM"
602,37,602,"37,39",602,"test","true",37,"left","neutral","up","spatial",132,"12","1","Meditation","Low","Low","HIgh","FAM"
758,39,758,"37,39",758,"test","true",39,"right","incongruent","down","double",133,"12","1","Meditation","Low","Low","HIgh","FAM"
705,39,705,"37,39",705,"test","true",39,"right","congruent","down","nocue",134,"12","1","Meditation","Low","Low","HIgh","FAM"
718,37,718,"37,39",718,"test","true",37,"left","incongruent","down","nocue",135,"12","1","Meditation","Low","Low","HIgh","FAM"
743,37,743,"37,39",743,"test","true",37,"left","incongruent","down","center",136,"12","1","Meditation","Low","Low","HIgh","FAM"
596,39,596,"37,39",596,"test","true",39,"right","congruent","up","double",137,"12","1","Meditation","Low","Low","HIgh","FAM"
642,39,642,"37,39",642,"test","true",39,"right","incongruent","up","double",138,"12","1","Meditation","Low","Low","HIgh","FAM"
803,37,803,"37,39",803,"test","true",37,"left","neutral","down","nocue",139,"12","1","Meditation","Low","Low","HIgh","FAM"
569,37,569,"37,39",569,"test","true",37,"left","congruent","up","double",140,"12","1","Meditation","Low","Low","HIgh","FAM"
616,37,616,"37,39",616,"test","true",37,"left","congruent","up","center",141,"12","1","Meditation","Low","Low","HIgh","FAM"
662,37,662,"37,39",662,"test","true",37,"left","incongruent","up","center",142,"12","1","Meditation","Low","Low","HIgh","FAM"
741,37,741,"37,39",741,"test","true",37,"left","neutral","down","center",143,"12","1","Meditation","Low","Low","HIgh","FAM"
563,39,563,"37,39",563,"test","true",39,"right","neutral","up","spatial",144,"12","1","Meditation","Low","Low","HIgh","FAM"
463,37,463,"37,39",463,"test","true",37,"left","congruent","up","spatial",1,"12","2","Meditation","Low","Low","HIgh","FAM"
744,37,744,"37,39",744,"test","true",37,"left","congruent","up","double",2,"12","2","Meditation","Low","Low","HIgh","FAM"
789,39,789,"37,39",789,"test","true",39,"right","neutral","down","center",3,"12","2","Meditation","Low","Low","HIgh","FAM"
579,37,579,"37,39",579,"test","true",37,"left","neutral","up","spatial",4,"12","2","Meditation","Low","Low","HIgh","FAM"
747,39,747,"37,39",747,"test","true",39,"right","incongruent","down","spatial",5,"12","2","Meditation","Low","Low","HIgh","FAM"
788,39,788,"37,39",788,"test","true",39,"right","incongruent","down","center",6,"12","2","Meditation","Low","Low","HIgh","FAM"
589,39,589,"37,39",589,"test","true",39,"right","congruent","up","double",7,"12","2","Meditation","Low","Low","HIgh","FAM"
628,37,628,"37,39",628,"test","true",37,"left","neutral","down","center",8,"12","2","Meditation","Low","Low","HIgh","FAM"
648,37,648,"37,39",648,"test","true",37,"left","incongruent","down","double",9,"12","2","Meditation","Low","Low","HIgh","FAM"
766,39,766,"37,39",766,"test","true",39,"right","neutral","down","nocue",10,"12","2","Meditation","Low","Low","HIgh","FAM"
653,37,653,"37,39",653,"test","true",37,"left","congruent","down","nocue",11,"12","2","Meditation","Low","Low","HIgh","FAM"
550,39,550,"37,39",550,"test","true",39,"right","congruent","down","double",12,"12","2","Meditation","Low","Low","HIgh","FAM"
473,37,473,"37,39",473,"test","true",37,"left","neutral","up","double",13,"12","2","Meditation","Low","Low","HIgh","FAM"
584,39,584,"37,39",584,"test","true",39,"right","congruent","up","spatial",14,"12","2","Meditation","Low","Low","HIgh","FAM"
510,39,510,"37,39",510,"test","true",39,"right","neutral","down","spatial",15,"12","2","Meditation","Low","Low","HIgh","FAM"
621,37,621,"37,39",621,"test","true",37,"left","congruent","up","center",16,"12","2","Meditation","Low","Low","HIgh","FAM"
706,37,706,"37,39",706,"test","true",37,"left","incongruent","up","double",17,"12","2","Meditation","Low","Low","HIgh","FAM"
572,37,572,"37,39",572,"test","true",37,"left","incongruent","up","spatial",18,"12","2","Meditation","Low","Low","HIgh","FAM"
597,39,597,"37,39",597,"test","true",39,"right","neutral","up","center",19,"12","2","Meditation","Low","Low","HIgh","FAM"
593,37,593,"37,39",593,"test","true",37,"left","neutral","down","spatial",20,"12","2","Meditation","Low","Low","HIgh","FAM"
593,37,593,"37,39",593,"test","true",37,"left","congruent","down","double",21,"12","2","Meditation","Low","Low","HIgh","FAM"
654,39,654,"37,39",654,"test","true",39,"right","incongruent","up","center",22,"12","2","Meditation","Low","Low","HIgh","FAM"
580,37,580,"37,39",580,"test","true",37,"left","congruent","down","spatial",23,"12","2","Meditation","Low","Low","HIgh","FAM"
588,37,588,"37,39",588,"test","true",37,"left","neutral","down","nocue",24,"12","2","Meditation","Low","Low","HIgh","FAM"
584,39,584,"37,39",584,"test","true",39,"right","congruent","down","spatial",25,"12","2","Meditation","Low","Low","HIgh","FAM"
693,37,693,"37,39",693,"test","true",37,"left","incongruent","up","center",26,"12","2","Meditation","Low","Low","HIgh","FAM"
548,39,548,"37,39",548,"test","true",39,"right","incongruent","up","spatial",27,"12","2","Meditation","Low","Low","HIgh","FAM"
736,39,736,"37,39",736,"test","true",39,"right","incongruent","up","nocue",28,"12","2","Meditation","Low","Low","HIgh","FAM"
667,39,667,"37,39",667,"test","true",39,"right","neutral","up","nocue",29,"12","2","Meditation","Low","Low","HIgh","FAM"
638,37,638,"37,39",638,"test","true",37,"left","congruent","up","nocue",30,"12","2","Meditation","Low","Low","HIgh","FAM"
712,37,712,"37,39",712,"test","true",37,"left","incongruent","up","nocue",31,"12","2","Meditation","Low","Low","HIgh","FAM"
612,39,612,"37,39",612,"test","true",39,"right","neutral","down","double",32,"12","2","Meditation","Low","Low","HIgh","FAM"
547,39,547,"37,39",547,"test","true",39,"right","congruent","up","center",33,"12","2","Meditation","Low","Low","HIgh","FAM"
591,39,591,"37,39",591,"test","true",39,"right","congruent","up","nocue",34,"12","2","Meditation","Low","Low","HIgh","FAM"
645,39,645,"37,39",645,"test","true",39,"right","congruent","down","center",35,"12","2","Meditation","Low","Low","HIgh","FAM"
618,39,618,"37,39",618,"test","true",39,"right","congruent","down","nocue",36,"12","2","Meditation","Low","Low","HIgh","FAM"
559,39,559,"37,39",559,"test","true",39,"right","incongruent","up","double",37,"12","2","Meditation","Low","Low","HIgh","FAM"
412,39,412,"37,39",412,"test","true",39,"right","neutral","up","spatial",38,"12","2","Meditation","Low","Low","HIgh","FAM"
770,37,770,"37,39",770,"test","true",37,"left","incongruent","down","center",39,"12","2","Meditation","Low","Low","HIgh","FAM"
745,39,745,"37,39",745,"test","true",39,"right","incongruent","down","double",40,"12","2","Meditation","Low","Low","HIgh","FAM"
692,39,692,"37,39",692,"test","true",39,"right","incongruent","down","nocue",41,"12","2","Meditation","Low","Low","HIgh","FAM"
692,37,692,"37,39",692,"test","true",37,"left","neutral","up","center",42,"12","2","Meditation","Low","Low","HIgh","FAM"
820,37,820,"37,39",820,"test","true",37,"left","incongruent","down","spatial",43,"12","2","Meditation","Low","Low","HIgh","FAM"
672,37,672,"37,39",672,"test","true",37,"left","congruent","down","center",44,"12","2","Meditation","Low","Low","HIgh","FAM"
632,37,632,"37,39",632,"test","true",37,"left","neutral","down","double",45,"12","2","Meditation","Low","Low","HIgh","FAM"
728,37,728,"37,39",728,"test","true",37,"left","neutral","up","nocue",46,"12","2","Meditation","Low","Low","HIgh","FAM"
647,39,647,"37,39",647,"test","true",39,"right","neutral","up","double",47,"12","2","Meditation","Low","Low","HIgh","FAM"
717,37,717,"37,39",717,"test","true",37,"left","incongruent","down","nocue",48,"12","2","Meditation","Low","Low","HIgh","FAM"
626,37,626,"37,39",626,"test","true",37,"left","incongruent","up","double",49,"12","2","Meditation","Low","Low","HIgh","FAM"
774,39,774,"37,39",774,"test","true",39,"right","incongruent","down","double",50,"12","2","Meditation","Low","Low","HIgh","FAM"
592,39,592,"37,39",592,"test","true",39,"right","congruent","up","nocue",51,"12","2","Meditation","Low","Low","HIgh","FAM"
562,37,562,"37,39",562,"test","true",37,"left","neutral","up","nocue",52,"12","2","Meditation","Low","Low","HIgh","FAM"
588,37,588,"37,39",588,"test","true",37,"left","congruent","up","center",53,"12","2","Meditation","Low","Low","HIgh","FAM"
550,37,550,"37,39",550,"test","true",37,"left","incongruent","up","spatial",54,"12","2","Meditation","Low","Low","HIgh","FAM"
813,37,813,"37,39",813,"test","true",37,"left","congruent","down","double",55,"12","2","Meditation","Low","Low","HIgh","FAM"
737,39,737,"37,39",737,"test","true",39,"right","incongruent","down","nocue",56,"12","2","Meditation","Low","Low","HIgh","FAM"
830,37,830,"37,39",830,"test","true",37,"left","incongruent","down","double",57,"12","2","Meditation","Low","Low","HIgh","FAM"
716,37,716,"37,39",716,"test","true",37,"left","neutral","up","center",58,"12","2","Meditation","Low","Low","HIgh","FAM"
858,39,858,"37,39",858,"test","true",39,"right","incongruent","up","nocue",59,"12","2","Meditation","Low","Low","HIgh","FAM"
627,39,627,"37,39",627,"test","true",39,"right","congruent","up","center",60,"12","2","Meditation","Low","Low","HIgh","FAM"
631,37,631,"37,39",631,"test","true",37,"left","incongruent","up","center",61,"12","2","Meditation","Low","Low","HIgh","FAM"
966,37,966,"37,39",966,"test","true",37,"left","incongruent","down","center",62,"12","2","Meditation","Low","Low","HIgh","FAM"
642,37,642,"37,39",642,"test","true",37,"left","neutral","down","center",63,"12","2","Meditation","Low","Low","HIgh","FAM"
540,37,540,"37,39",540,"test","true",37,"left","congruent","up","spatial",64,"12","2","Meditation","Low","Low","HIgh","FAM"
562,39,562,"37,39",562,"test","true",39,"right","incongruent","up","spatial",65,"12","2","Meditation","Low","Low","HIgh","FAM"
526,37,526,"37,39",526,"test","true",37,"left","neutral","up","spatial",66,"12","2","Meditation","Low","Low","HIgh","FAM"
606,37,606,"37,39",606,"test","true",37,"left","congruent","up","double",67,"12","2","Meditation","Low","Low","HIgh","FAM"
516,39,516,"37,39",516,"test","true",39,"right","neutral","up","spatial",68,"12","2","Meditation","Low","Low","HIgh","FAM"
767,37,767,"37,39",767,"test","true",37,"left","congruent","down","nocue",69,"12","2","Meditation","Low","Low","HIgh","FAM"
468,37,468,"37,39",468,"test","true",37,"left","neutral","up","double",71,"12","2","Meditation","Low","Low","HIgh","FAM"
598,39,598,"37,39",598,"test","true",39,"right","neutral","up","double",72,"12","2","Meditation","Low","Low","HIgh","FAM"
640,39,640,"37,39",640,"test","true",39,"right","congruent","down","spatial",73,"12","2","Meditation","Low","Low","HIgh","FAM"
751,37,751,"37,39",751,"test","true",37,"left","neutral","down","double",74,"12","2","Meditation","Low","Low","HIgh","FAM"
718,39,718,"37,39",718,"test","true",39,"right","neutral","down","double",75,"12","2","Meditation","Low","Low","HIgh","FAM"
637,37,637,"37,39",637,"test","true",37,"left","neutral","down","spatial",76,"12","2","Meditation","Low","Low","HIgh","FAM"
511,39,511,"37,39",511,"test","true",39,"right","congruent","up","double",77,"12","2","Meditation","Low","Low","HIgh","FAM"
