study,p,group,t,trial_num,rt,block_duration,stim_duration,correct,correct_response,flanker_middle_direction,flanker_type,flanker_location,cue
1,s1p1,meditation,1,1,644,644,644,true,39,right,neutral,down,double
1,s1p1,meditation,1,2,865,865,865,true,37,left,neutral,up,center
1,s1p1,meditation,1,3,536,536,536,true,37,left,congruent,down,spatial
1,s1p1,meditation,1,4,777,777,777,true,39,right,incongruent,up,center
1,s1p1,meditation,1,5,679,679,679,true,37,left,incongruent,up,double
1,s1p1,meditation,1,6,681,681,681,true,39,right,congruent,up,center
1,s1p1,meditation,1,7,789,789,789,true,37,left,congruent,up,spatial
1,s1p1,meditation,1,8,772,772,772,true,37,left,congruent,down,nocue
1,s1p1,meditation,1,9,714,714,714,true,39,right,congruent,down,nocue
1,s1p1,meditation,1,10,546,546,546,true,39,right,congruent,down,spatial
1,s1p1,meditation,1,11,615,615,615,true,39,right,incongruent,up,spatial
1,s1p1,meditation,1,12,537,537,537,true,39,right,congruent,up,spatial
1,s1p1,meditation,1,13,677,677,677,true,37,left,congruent,up,double
1,s1p1,meditation,1,14,829,829,829,true,39,right,incongruent,up,nocue
1,s1p1,meditation,1,15,678,678,678,true,39,right,congruent,down,center
1,s1p1,meditation,1,16,529,529,529,true,39,right,neutral,up,spatial
1,s1p1,meditation,1,17,660,660,660,true,39,right,congruent,up,double
1,s1p1,meditation,1,18,865,865,865,true,37,left,neutral,down,nocue
1,s1p1,meditation,1,19,653,653,653,true,37,left,neutral,down,spatial
1,s1p1,meditation,1,20,866,866,866,true,37,left,incongruent,down,nocue
1,s1p1,meditation,1,21,772,772,772,true,39,right,neutral,up,double
1,s1p1,meditation,1,22,786,786,786,true,37,left,incongruent,up,nocue
1,s1p1,meditation,1,23,678,678,678,true,37,left,congruent,down,center
1,s1p1,meditation,1,24,712,712,712,true,37,left,congruent,up,center
1,s1p1,meditation,1,25,654,654,654,true,37,left,congruent,down,double
1,s1p1,meditation,1,26,791,791,791,true,39,right,neutral,up,nocue
1,s1p1,meditation,1,27,848,848,848,true,39,right,incongruent,down,center
1,s1p1,meditation,1,28,807,807,807,true,37,left,neutral,down,double
1,s1p1,meditation,1,29,775,775,775,true,39,right,congruent,up,nocue
1,s1p1,meditation,1,30,799,799,799,true,37,left,neutral,up,double
1,s1p1,meditation,1,31,625,625,625,true,39,right,neutral,down,spatial
1,s1p1,meditation,1,32,653,653,653,true,37,left,incongruent,down,double
1,s1p1,meditation,1,33,758,758,758,true,39,right,incongruent,up,double
1,s1p1,meditation,1,34,735,735,735,true,39,right,incongruent,down,double
1,s1p1,meditation,1,35,656,656,656,true,39,right,neutral,down,nocue
1,s1p1,meditation,1,36,650,650,650,true,39,right,neutral,down,center
1,s1p1,meditation,1,37,568,568,568,true,39,right,congruent,down,double
1,s1p1,meditation,1,38,818,818,818,true,39,right,neutral,up,center
1,s1p1,meditation,1,39,687,687,687,true,37,left,neutral,up,spatial
1,s1p1,meditation,1,40,670,670,670,true,37,left,incongruent,up,spatial
1,s1p1,meditation,1,41,809,809,809,true,37,left,neutral,up,nocue
1,s1p1,meditation,1,42,714,714,714,true,37,left,incongruent,up,center
1,s1p1,meditation,1,43,644,644,644,true,37,left,congruent,up,nocue
1,s1p1,meditation,1,44,816,816,816,true,39,right,incongruent,down,spatial
1,s1p1,meditation,1,45,672,672,672,true,37,left,neutral,down,center
1,s1p1,meditation,1,46,690,690,690,true,39,right,incongruent,down,nocue
1,s1p1,meditation,1,47,726,726,726,true,37,left,incongruent,down,center
1,s1p1,meditation,1,48,661,661,661,true,37,left,incongruent,down,spatial
1,s1p1,meditation,1,49,844,844,844,true,39,right,incongruent,up,center
1,s1p1,meditation,1,50,633,633,633,true,39,right,congruent,down,center
1,s1p1,meditation,1,51,808,808,808,true,39,right,congruent,up,double
1,s1p1,meditation,1,52,889,889,889,true,37,left,incongruent,down,double
1,s1p1,meditation,1,53,542,542,542,true,37,left,neutral,down,double
1,s1p1,meditation,1,54,722,722,722,true,37,left,neutral,down,center
1,s1p1,meditation,1,55,594,594,594,true,39,right,incongruent,down,spatial
1,s1p1,meditation,1,56,732,732,732,true,39,right,congruent,up,center
1,s1p1,meditation,1,57,635,635,635,true,39,right,congruent,up,spatial
1,s1p1,meditation,1,58,786,786,786,true,37,left,neutral,down,spatial
1,s1p1,meditation,1,59,687,687,687,true,39,right,incongruent,down,center
1,s1p1,meditation,1,60,621,621,621,true,37,left,congruent,down,spatial
1,s1p1,meditation,1,61,591,591,591,true,39,right,incongruent,down,double
1,s1p1,meditation,1,62,670,670,670,true,37,left,congruent,down,nocue
1,s1p1,meditation,1,63,623,623,623,true,39,right,neutral,down,center
1,s1p1,meditation,1,64,839,839,839,true,39,right,incongruent,up,spatial
1,s1p1,meditation,1,65,750,750,750,true,37,left,neutral,up,double
1,s1p1,meditation,1,66,832,832,832,true,37,left,incongruent,up,center
1,s1p1,meditation,1,67,761,761,761,true,39,right,incongruent,up,nocue
1,s1p1,meditation,1,68,644,644,644,true,37,left,congruent,down,double
1,s1p1,meditation,1,69,615,615,615,true,39,right,congruent,down,spatial
1,s1p1,meditation,1,70,723,723,723,true,37,left,neutral,down,nocue
1,s1p1,meditation,1,71,737,737,737,true,37,left,neutral,up,center
1,s1p1,meditation,1,72,646,646,646,true,37,left,congruent,up,nocue
1,s1p1,meditation,1,73,654,654,654,true,39,right,neutral,up,nocue
1,s1p1,meditation,1,74,603,603,603,true,39,right,congruent,down,nocue
1,s1p1,meditation,1,75,700,700,700,true,39,right,incongruent,down,nocue
1,s1p1,meditation,1,76,644,644,644,true,39,right,neutral,up,center
1,s1p1,meditation,1,77,694,694,694,true,39,right,neutral,down,nocue
1,s1p1,meditation,1,78,583,583,583,true,39,right,neutral,down,double
1,s1p1,meditation,1,79,617,617,617,true,39,right,neutral,up,spatial
1,s1p1,meditation,1,80,654,654,654,true,37,left,neutral,up,spatial
1,s1p1,meditation,1,81,661,661,661,true,37,left,incongruent,down,spatial
1,s1p1,meditation,1,82,729,729,729,true,37,left,congruent,up,center
1,s1p1,meditation,1,83,695,695,695,true,37,left,incongruent,up,spatial
1,s1p1,meditation,1,84,632,632,632,true,37,left,congruent,up,double
1,s1p1,meditation,1,85,848,848,848,true,39,right,congruent,up,nocue
1,s1p1,meditation,1,86,874,874,874,true,39,right,congruent,down,double
1,s1p1,meditation,1,87,714,714,714,true,37,left,incongruent,down,center
1,s1p1,meditation,1,88,804,804,804,true,37,left,neutral,up,nocue
1,s1p1,meditation,1,89,658,658,658,true,37,left,congruent,down,center
1,s1p1,meditation,1,90,575,575,575,true,37,left,congruent,up,spatial
1,s1p1,meditation,1,91,840,840,840,true,39,right,neutral,up,double
1,s1p1,meditation,1,92,764,764,764,true,37,left,incongruent,down,nocue
1,s1p1,meditation,1,93,727,727,727,true,39,right,incongruent,up,double
1,s1p1,meditation,1,94,744,744,744,true,37,left,incongruent,up,nocue
1,s1p1,meditation,1,95,561,561,561,true,39,right,neutral,down,spatial
1,s1p1,meditation,1,96,764,764,764,true,37,left,incongruent,up,double
1,s1p1,meditation,1,97,648,648,648,true,39,right,neutral,up,nocue
1,s1p1,meditation,1,98,653,653,653,true,39,right,incongruent,down,spatial
1,s1p1,meditation,1,99,675,675,675,true,39,right,neutral,down,center
1,s1p1,meditation,1,100,672,672,672,true,37,left,congruent,down,center
1,s1p1,meditation,1,101,800,800,800,true,39,right,incongruent,up,nocue
1,s1p1,meditation,1,102,714,714,714,true,37,left,incongruent,up,center
1,s1p1,meditation,1,103,812,812,812,true,37,left,congruent,up,double
1,s1p1,meditation,1,104,655,655,655,true,39,right,neutral,down,spatial
1,s1p1,meditation,1,105,732,732,732,true,39,right,incongruent,down,double
1,s1p1,meditation,1,106,638,638,638,true,39,right,congruent,down,center
1,s1p1,meditation,1,107,651,651,651,true,39,right,neutral,up,center
1,s1p1,meditation,1,108,764,764,764,true,39,right,incongruent,down,nocue
1,s1p1,meditation,1,109,573,573,573,true,39,right,neutral,down,nocue
1,s1p1,meditation,1,110,773,773,773,true,37,left,neutral,up,center
1,s1p1,meditation,1,111,565,565,565,true,37,left,neutral,down,spatial
1,s1p1,meditation,1,112,735,735,735,true,37,left,neutral,down,double
1,s1p1,meditation,1,113,729,729,729,true,37,left,congruent,up,nocue
1,s1p1,meditation,1,114,613,613,613,true,37,left,incongruent,down,double
1,s1p1,meditation,1,115,582,582,582,true,37,left,neutral,up,double
1,s1p1,meditation,1,116,670,670,670,true,37,left,neutral,down,nocue
1,s1p1,meditation,1,117,721,721,721,true,39,right,congruent,down,nocue
1,s1p1,meditation,1,118,548,548,548,true,37,left,congruent,down,spatial
1,s1p1,meditation,1,119,610,610,610,true,39,right,congruent,down,spatial
1,s1p1,meditation,1,120,691,691,691,true,37,left,congruent,up,spatial
1,s1p1,meditation,1,121,605,605,605,true,39,right,neutral,up,spatial
1,s1p1,meditation,1,122,585,585,585,true,37,left,neutral,up,spatial
1,s1p1,meditation,1,123,717,717,717,true,39,right,congruent,up,double
1,s1p1,meditation,1,124,609,609,609,true,39,right,congruent,up,nocue
1,s1p1,meditation,1,125,555,555,555,true,39,right,congruent,up,center
1,s1p1,meditation,1,126,901,901,901,true,37,left,incongruent,down,nocue
1,s1p1,meditation,1,127,757,757,757,true,37,left,incongruent,down,center
1,s1p1,meditation,1,128,801,801,801,true,37,left,incongruent,up,nocue
1,s1p1,meditation,1,129,632,632,632,true,37,left,congruent,up,center
1,s1p1,meditation,1,130,707,707,707,true,37,left,incongruent,up,spatial
1,s1p1,meditation,1,131,572,572,572,true,39,right,congruent,up,spatial
1,s1p1,meditation,1,132,699,699,699,true,37,left,incongruent,down,spatial
1,s1p1,meditation,1,133,626,626,626,true,39,right,congruent,down,double
1,s1p1,meditation,1,134,656,656,656,true,39,right,neutral,up,double
1,s1p1,meditation,1,135,780,780,780,true,39,right,incongruent,down,center
1,s1p1,meditation,1,137,633,633,633,true,39,right,incongruent,up,double
1,s1p1,meditation,1,138,551,551,551,true,39,right,incongruent,up,spatial
1,s1p1,meditation,1,139,714,714,714,true,37,left,congruent,down,double
1,s1p1,meditation,1,140,610,610,610,true,37,left,neutral,down,center
1,s1p1,meditation,1,141,716,716,716,true,37,left,incongruent,up,double
1,s1p1,meditation,1,142,719,719,719,true,37,left,neutral,up,nocue
1,s1p1,meditation,1,143,704,704,704,true,37,left,congruent,down,nocue
1,s1p1,meditation,1,144,553,553,553,true,39,right,neutral,down,double
1,s1p10,meditation,1,1,411,411,411,true,37,left,neutral,up,spatial
1,s1p10,meditation,1,2,396,396,396,true,39,right,congruent,down,spatial
1,s1p10,meditation,1,3,776,776,776,true,39,right,neutral,down,nocue
1,s1p10,meditation,1,4,684,684,684,true,37,left,incongruent,up,nocue
1,s1p10,meditation,1,5,740,740,740,true,37,left,neutral,down,nocue
1,s1p10,meditation,1,6,719,719,719,true,39,right,neutral,up,nocue
1,s1p10,meditation,1,7,784,784,784,true,39,right,congruent,down,center
1,s1p10,meditation,1,8,564,564,564,true,39,right,neutral,down,double
1,s1p10,meditation,1,9,826,826,826,true,39,right,incongruent,up,nocue
1,s1p10,meditation,1,10,656,656,656,true,37,left,incongruent,down,nocue
1,s1p10,meditation,1,12,671,671,671,true,37,left,neutral,up,nocue
1,s1p10,meditation,1,14,614,614,614,true,37,left,neutral,down,spatial
1,s1p10,meditation,1,15,735,735,735,true,37,left,congruent,down,nocue
1,s1p10,meditation,1,16,562,562,562,true,39,right,incongruent,down,spatial
1,s1p10,meditation,1,17,655,655,655,true,37,left,congruent,up,center
1,s1p10,meditation,1,18,554,554,554,true,37,left,congruent,down,spatial
1,s1p10,meditation,1,19,591,591,591,true,39,right,congruent,up,spatial
1,s1p10,meditation,1,20,578,578,578,true,39,right,congruent,up,double
1,s1p10,meditation,1,21,711,711,711,true,37,left,congruent,down,double
1,s1p10,meditation,1,22,492,492,492,true,39,right,neutral,up,spatial
1,s1p10,meditation,1,23,846,846,846,true,39,right,congruent,down,nocue
1,s1p10,meditation,1,24,890,890,890,true,39,right,incongruent,down,double
1,s1p10,meditation,1,25,738,738,738,true,37,left,incongruent,down,double
1,s1p10,meditation,1,26,688,688,688,true,39,right,incongruent,up,center
1,s1p10,meditation,1,27,715,715,715,true,37,left,incongruent,up,double
1,s1p10,meditation,1,28,884,884,884,true,39,right,incongruent,down,center
1,s1p10,meditation,1,29,570,570,570,true,37,left,congruent,down,center
1,s1p10,meditation,1,30,585,585,585,true,39,right,congruent,up,nocue
1,s1p10,meditation,1,31,538,538,538,true,37,left,neutral,down,center
1,s1p10,meditation,1,32,932,932,932,true,39,right,incongruent,up,spatial
1,s1p10,meditation,1,33,1013,1013,1013,true,39,right,incongruent,down,nocue
1,s1p10,meditation,1,34,483,483,483,true,37,left,congruent,up,spatial
1,s1p10,meditation,1,35,596,596,596,true,37,left,neutral,up,center
1,s1p10,meditation,1,36,848,848,848,true,37,left,incongruent,up,spatial
1,s1p10,meditation,1,37,646,646,646,true,39,right,congruent,up,center
1,s1p10,meditation,1,38,604,604,604,true,39,right,neutral,down,spatial
1,s1p10,meditation,1,39,623,623,623,true,37,left,incongruent,up,center
1,s1p10,meditation,1,40,516,516,516,true,39,right,neutral,down,center
1,s1p10,meditation,1,41,597,597,597,true,37,left,neutral,down,double
1,s1p10,meditation,1,42,747,747,747,true,37,left,neutral,up,double
1,s1p10,meditation,1,43,710,710,710,true,39,right,congruent,down,double
1,s1p10,meditation,1,44,582,582,582,true,39,right,neutral,up,double
1,s1p10,meditation,1,45,723,723,723,true,39,right,incongruent,up,double
1,s1p10,meditation,1,46,636,636,636,true,37,left,congruent,up,double
1,s1p10,meditation,1,47,599,599,599,true,39,right,neutral,up,center
1,s1p10,meditation,1,48,691,691,691,true,37,left,congruent,up,nocue
1,s1p10,meditation,1,49,621,621,621,true,39,right,congruent,down,nocue
1,s1p10,meditation,1,50,738,738,738,true,39,right,incongruent,down,center
1,s1p10,meditation,1,51,477,477,477,true,39,right,neutral,up,nocue
1,s1p10,meditation,1,52,512,512,512,true,39,right,congruent,down,spatial
1,s1p10,meditation,1,53,893,893,893,true,39,right,incongruent,up,nocue
1,s1p10,meditation,1,54,821,821,821,true,37,left,incongruent,down,spatial
1,s1p10,meditation,1,55,1049,1049,1049,true,37,left,incongruent,up,nocue
1,s1p10,meditation,1,56,950,950,950,true,37,left,incongruent,down,center
1,s1p10,meditation,1,57,497,497,497,true,39,right,neutral,up,spatial
1,s1p10,meditation,1,58,485,485,485,true,39,right,neutral,up,double
1,s1p10,meditation,1,59,761,761,761,true,37,left,incongruent,down,double
1,s1p10,meditation,1,62,738,738,738,true,39,right,incongruent,down,spatial
1,s1p10,meditation,1,63,830,830,830,true,39,right,incongruent,up,double
1,s1p10,meditation,1,64,731,731,731,true,37,left,neutral,up,nocue
1,s1p10,meditation,1,65,838,838,838,true,37,left,incongruent,down,nocue
1,s1p10,meditation,1,66,562,562,562,true,39,right,congruent,up,spatial
1,s1p10,meditation,1,67,709,709,709,true,39,right,neutral,down,double
1,s1p10,meditation,1,68,602,602,602,true,37,left,congruent,down,center
1,s1p10,meditation,1,69,852,852,852,true,39,right,incongruent,down,nocue
1,s1p10,meditation,1,70,546,546,546,true,39,right,incongruent,up,spatial
1,s1p10,meditation,1,71,653,653,653,true,39,right,congruent,down,double
1,s1p10,meditation,1,72,593,593,593,true,37,left,neutral,up,center
1,s1p10,meditation,1,73,740,740,740,true,39,right,congruent,up,nocue
1,s1p10,meditation,1,74,569,569,569,true,39,right,neutral,down,center
1,s1p10,meditation,1,75,911,911,911,true,37,left,congruent,up,spatial
1,s1p10,meditation,1,76,630,630,630,true,37,left,neutral,up,double
1,s1p10,meditation,1,77,601,601,601,true,39,right,congruent,up,center
1,s1p10,meditation,1,78,685,685,685,true,37,left,congruent,down,spatial
1,s1p10,meditation,1,79,852,852,852,true,39,right,congruent,down,center
1,s1p10,meditation,1,80,813,813,813,true,39,right,neutral,down,nocue
1,s1p10,meditation,1,81,559,559,559,true,37,left,congruent,up,center
1,s1p10,meditation,1,82,796,796,796,true,37,left,congruent,up,nocue
1,s1p10,meditation,1,83,668,668,668,true,39,right,congruent,up,double
1,s1p10,meditation,1,86,924,924,924,true,39,right,incongruent,up,center
1,s1p10,meditation,1,87,736,736,736,true,39,right,incongruent,down,double
1,s1p10,meditation,1,88,840,840,840,true,37,left,neutral,up,spatial
1,s1p10,meditation,1,89,689,689,689,true,37,left,incongruent,up,center
1,s1p10,meditation,1,90,719,719,719,true,37,left,neutral,down,double
1,s1p10,meditation,1,91,744,744,744,true,37,left,neutral,down,nocue
1,s1p10,meditation,1,92,1093,1093,1093,true,37,left,incongruent,up,double
1,s1p10,meditation,1,94,577,577,577,true,37,left,congruent,down,double
1,s1p10,meditation,1,95,463,463,463,true,37,left,neutral,down,center
1,s1p10,meditation,1,96,525,525,525,true,37,left,incongruent,up,spatial
1,s1p10,meditation,1,97,576,576,576,true,37,left,congruent,down,center
1,s1p10,meditation,1,98,1101,1101,1101,true,39,right,congruent,up,center
1,s1p10,meditation,1,99,677,677,677,true,39,right,incongruent,up,spatial
1,s1p10,meditation,1,103,664,664,664,true,37,left,neutral,down,double
1,s1p10,meditation,1,105,507,507,507,true,37,left,congruent,up,spatial
1,s1p10,meditation,1,107,565,565,565,true,37,left,congruent,down,double
1,s1p10,meditation,1,108,560,560,560,true,39,right,incongruent,up,double
1,s1p10,meditation,1,109,774,774,774,true,37,left,neutral,down,nocue
1,s1p10,meditation,1,112,678,678,678,true,39,right,neutral,up,spatial
1,s1p10,meditation,1,114,820,820,820,true,37,left,neutral,down,center
1,s1p10,meditation,1,116,695,695,695,true,39,right,neutral,up,nocue
1,s1p10,meditation,1,117,864,864,864,true,39,right,incongruent,down,nocue
1,s1p10,meditation,1,118,675,675,675,true,37,left,incongruent,up,spatial
1,s1p10,meditation,1,119,755,755,755,true,39,right,incongruent,down,double
1,s1p10,meditation,1,120,606,606,606,true,37,left,neutral,down,spatial
1,s1p10,meditation,1,121,479,479,479,true,39,right,neutral,down,spatial
1,s1p10,meditation,1,123,800,800,800,true,39,right,neutral,down,center
1,s1p10,meditation,1,124,733,733,733,true,37,left,congruent,up,nocue
1,s1p10,meditation,1,125,619,619,619,true,37,left,incongruent,up,double
1,s1p10,meditation,1,126,455,455,455,true,37,left,neutral,up,double
1,s1p10,meditation,1,127,765,765,765,true,39,right,neutral,down,nocue
1,s1p10,meditation,1,128,516,516,516,true,39,right,neutral,up,double
1,s1p10,meditation,1,129,1169,1169,1169,true,39,right,congruent,down,nocue
1,s1p10,meditation,1,130,1000,1000,1000,true,37,left,congruent,down,nocue
1,s1p10,meditation,1,131,439,439,439,true,37,left,congruent,up,double
1,s1p10,meditation,1,132,544,544,544,true,39,right,congruent,down,double
1,s1p10,meditation,1,133,542,542,542,true,39,right,congruent,down,center
1,s1p10,meditation,1,134,1018,1018,1018,true,39,right,congruent,up,nocue
1,s1p10,meditation,1,135,711,711,711,true,37,left,congruent,down,spatial
1,s1p10,meditation,1,136,621,621,621,true,37,left,congruent,up,center
1,s1p10,meditation,1,137,449,449,449,true,39,right,congruent,up,double
1,s1p10,meditation,1,139,514,514,514,true,39,right,congruent,up,spatial
1,s1p10,meditation,1,140,764,764,764,true,37,left,neutral,up,spatial
1,s1p10,meditation,1,141,1104,1104,1104,true,37,left,incongruent,up,nocue
1,s1p10,meditation,1,142,957,957,957,true,37,left,incongruent,down,center
1,s1p10,meditation,1,143,637,637,637,true,39,right,congruent,down,spatial
1,s1p10,meditation,1,144,1137,1137,1137,true,39,right,neutral,down,double
1,s1p12,control,1,1,702,702,702,true,37,left,neutral,down,center
1,s1p12,control,1,2,514,514,514,true,39,right,neutral,down,double
1,s1p12,control,1,3,558,558,558,true,37,left,incongruent,up,nocue
1,s1p12,control,1,4,681,681,681,true,39,right,incongruent,down,spatial
1,s1p12,control,1,5,913,913,913,true,39,right,incongruent,up,nocue
1,s1p12,control,1,6,636,636,636,true,37,left,incongruent,down,double
1,s1p12,control,1,7,604,604,604,true,37,left,neutral,up,spatial
1,s1p12,control,1,8,487,487,487,true,39,right,congruent,up,center
1,s1p12,control,1,9,582,582,582,true,37,left,incongruent,down,spatial
1,s1p12,control,1,11,531,531,531,true,37,left,neutral,up,double
1,s1p12,control,1,12,583,583,583,true,39,right,incongruent,up,spatial
1,s1p12,control,1,13,666,666,666,true,37,left,neutral,down,spatial
1,s1p12,control,1,14,647,647,647,true,37,left,incongruent,down,nocue
1,s1p12,control,1,15,598,598,598,true,37,left,neutral,down,nocue
1,s1p12,control,1,16,485,485,485,true,37,left,neutral,down,double
1,s1p12,control,1,17,594,594,594,true,37,left,incongruent,up,center
1,s1p12,control,1,18,552,552,552,true,39,right,congruent,up,spatial
1,s1p12,control,1,19,636,636,636,true,37,left,neutral,up,nocue
1,s1p12,control,1,20,508,508,508,true,39,right,neutral,up,spatial
1,s1p12,control,1,21,626,626,626,true,39,right,neutral,up,double
1,s1p12,control,1,22,855,855,855,true,39,right,congruent,down,nocue
1,s1p12,control,1,23,582,582,582,true,39,right,congruent,up,nocue
1,s1p12,control,1,24,630,630,630,true,37,left,incongruent,up,spatial
1,s1p12,control,1,25,543,543,543,true,39,right,neutral,up,center
1,s1p12,control,1,26,528,528,528,true,37,left,congruent,down,double
1,s1p12,control,1,28,623,623,623,true,37,left,congruent,down,nocue
1,s1p12,control,1,29,600,600,600,true,39,right,neutral,down,spatial
1,s1p12,control,1,30,586,586,586,true,37,left,neutral,up,center
1,s1p12,control,1,31,674,674,674,true,39,right,incongruent,up,center
1,s1p12,control,1,32,771,771,771,true,39,right,congruent,up,double
1,s1p12,control,1,33,699,699,699,true,39,right,congruent,down,double
1,s1p12,control,1,34,533,533,533,true,37,left,congruent,up,double
1,s1p12,control,1,35,533,533,533,true,37,left,congruent,up,spatial
1,s1p12,control,1,36,650,650,650,true,39,right,congruent,down,spatial
1,s1p12,control,1,37,902,902,902,true,39,right,incongruent,down,double
1,s1p12,control,1,38,809,809,809,true,39,right,incongruent,down,center
1,s1p12,control,1,39,603,603,603,true,37,left,congruent,down,center
1,s1p12,control,1,40,620,620,620,true,37,left,congruent,up,nocue
1,s1p12,control,1,41,632,632,632,true,37,left,congruent,up,center
1,s1p12,control,1,42,634,634,634,true,39,right,incongruent,up,double
1,s1p12,control,1,43,641,641,641,true,39,right,congruent,down,center
1,s1p12,control,1,44,740,740,740,true,39,right,neutral,up,nocue
1,s1p12,control,1,45,689,689,689,true,39,right,neutral,down,nocue
1,s1p12,control,1,46,506,506,506,true,39,right,neutral,down,center
1,s1p12,control,1,47,545,545,545,true,37,left,congruent,down,spatial
1,s1p12,control,1,48,651,651,651,true,39,right,incongruent,down,nocue
1,s1p12,control,1,49,715,715,715,true,39,right,neutral,down,nocue
1,s1p12,control,1,50,665,665,665,true,39,right,incongruent,down,nocue
1,s1p12,control,1,51,573,573,573,true,37,left,neutral,up,center
1,s1p12,control,1,52,587,587,587,true,39,right,neutral,up,nocue
1,s1p12,control,1,53,805,805,805,true,39,right,incongruent,up,double
1,s1p12,control,1,54,874,874,874,true,39,right,incongruent,up,spatial
1,s1p12,control,1,55,474,474,474,true,37,left,neutral,up,nocue
1,s1p12,control,1,56,561,561,561,true,37,left,congruent,up,center
1,s1p12,control,1,57,672,672,672,true,39,right,incongruent,down,double
1,s1p12,control,1,58,677,677,677,true,37,left,incongruent,up,nocue
1,s1p12,control,1,59,715,715,715,true,37,left,incongruent,up,double
1,s1p12,control,1,60,744,744,744,true,37,left,incongruent,down,nocue
1,s1p12,control,1,61,630,630,630,true,39,right,neutral,up,center
1,s1p12,control,1,62,556,556,556,true,39,right,neutral,down,double
1,s1p12,control,1,63,560,560,560,true,39,right,congruent,up,double
1,s1p12,control,1,65,673,673,673,true,37,left,incongruent,down,spatial
1,s1p12,control,1,66,683,683,683,true,39,right,neutral,down,center
1,s1p12,control,1,67,644,644,644,true,39,right,congruent,down,nocue
1,s1p12,control,1,68,564,564,564,true,39,right,neutral,down,spatial
1,s1p12,control,1,69,569,569,569,true,39,right,congruent,up,center
1,s1p12,control,1,70,789,789,789,true,39,right,incongruent,up,nocue
1,s1p12,control,1,71,519,519,519,true,39,right,congruent,down,center
1,s1p12,control,1,72,589,589,589,true,37,left,congruent,down,center
1,s1p12,control,1,73,788,788,788,true,37,left,congruent,up,nocue
1,s1p12,control,1,74,549,549,549,true,37,left,neutral,up,double
1,s1p12,control,1,75,563,563,563,true,39,right,congruent,up,nocue
1,s1p12,control,1,76,612,612,612,true,37,left,neutral,down,nocue
1,s1p12,control,1,77,577,577,577,true,37,left,neutral,down,double
1,s1p12,control,1,78,462,462,462,true,39,right,neutral,up,double
1,s1p12,control,1,79,588,588,588,true,37,left,congruent,down,nocue
1,s1p12,control,1,80,672,672,672,true,37,left,incongruent,up,center
1,s1p12,control,1,81,604,604,604,true,37,left,incongruent,up,spatial
1,s1p12,control,1,82,627,627,627,true,39,right,congruent,down,double
1,s1p12,control,1,83,615,615,615,true,37,left,incongruent,down,double
1,s1p12,control,1,84,508,508,508,true,39,right,congruent,up,spatial
1,s1p12,control,1,85,518,518,518,true,37,left,congruent,up,double
1,s1p12,control,1,86,568,568,568,true,39,right,neutral,up,spatial
1,s1p12,control,1,87,763,763,763,true,39,right,incongruent,up,center
1,s1p12,control,1,88,471,471,471,true,37,left,congruent,up,spatial
1,s1p12,control,1,89,540,540,540,true,37,left,neutral,up,spatial
1,s1p12,control,1,90,591,591,591,true,37,left,neutral,down,spatial
1,s1p12,control,1,92,630,630,630,true,37,left,congruent,down,spatial
1,s1p12,control,1,93,605,605,605,true,37,left,congruent,down,double
1,s1p12,control,1,94,628,628,628,true,37,left,neutral,down,center
1,s1p12,control,1,95,553,553,553,true,39,right,congruent,down,spatial
1,s1p12,control,1,96,761,761,761,true,39,right,incongruent,down,spatial
1,s1p12,control,1,97,610,610,610,true,37,left,congruent,down,double
1,s1p12,control,1,98,625,625,625,true,39,right,neutral,down,nocue
1,s1p12,control,1,99,521,521,521,true,37,left,neutral,up,nocue
1,s1p12,control,1,100,872,872,872,true,37,left,incongruent,up,nocue
1,s1p12,control,1,101,568,568,568,true,39,right,congruent,up,nocue
1,s1p12,control,1,102,534,534,534,true,37,left,neutral,down,center
1,s1p12,control,1,103,701,701,701,true,37,left,incongruent,down,spatial
1,s1p12,control,1,104,693,693,693,true,37,left,neutral,up,double
1,s1p12,control,1,105,609,609,609,true,37,left,congruent,down,nocue
1,s1p12,control,1,106,664,664,664,true,39,right,congruent,up,spatial
1,s1p12,control,1,107,792,792,792,true,39,right,neutral,up,double
1,s1p12,control,1,108,583,583,583,true,39,right,congruent,down,center
1,s1p12,control,1,109,590,590,590,true,39,right,neutral,up,spatial
1,s1p12,control,1,110,676,676,676,true,37,left,neutral,down,spatial
1,s1p12,control,1,111,498,498,498,true,39,right,neutral,down,double
1,s1p12,control,1,112,710,710,710,true,37,left,incongruent,down,double
1,s1p12,control,1,113,538,538,538,true,37,left,congruent,down,center
1,s1p12,control,1,114,796,796,796,true,37,left,neutral,up,center
1,s1p12,control,1,115,725,725,725,true,39,right,incongruent,up,nocue
1,s1p12,control,1,116,713,713,713,true,37,left,incongruent,up,double
1,s1p12,control,1,117,462,462,462,true,37,left,congruent,up,spatial
1,s1p12,control,1,119,491,491,491,true,39,right,congruent,down,double
1,s1p12,control,1,120,508,508,508,true,37,left,congruent,up,center
1,s1p12,control,1,121,636,636,636,true,39,right,incongruent,up,double
1,s1p12,control,1,122,688,688,688,true,39,right,neutral,up,nocue
1,s1p12,control,1,123,664,664,664,true,37,left,incongruent,down,nocue
1,s1p12,control,1,124,444,444,444,true,37,left,congruent,up,double
1,s1p12,control,1,125,879,879,879,true,39,right,incongruent,down,spatial
1,s1p12,control,1,126,608,608,608,true,39,right,incongruent,up,spatial
1,s1p12,control,1,127,600,600,600,true,37,left,congruent,up,nocue
1,s1p12,control,1,128,697,697,697,true,39,right,neutral,down,spatial
1,s1p12,control,1,129,527,527,527,true,37,left,neutral,down,double
1,s1p12,control,1,130,457,457,457,true,37,left,neutral,up,spatial
1,s1p12,control,1,131,574,574,574,true,39,right,neutral,down,center
1,s1p12,control,1,132,815,815,815,true,39,right,incongruent,down,nocue
1,s1p12,control,1,134,602,602,602,true,37,left,neutral,down,nocue
1,s1p12,control,1,135,579,579,579,true,39,right,neutral,up,center
1,s1p12,control,1,136,664,664,664,true,37,left,incongruent,up,center
1,s1p12,control,1,137,591,591,591,true,37,left,incongruent,up,spatial
1,s1p12,control,1,139,727,727,727,true,39,right,congruent,down,nocue
1,s1p12,control,1,140,798,798,798,true,39,right,congruent,up,double
1,s1p12,control,1,141,523,523,523,true,37,left,congruent,down,spatial
1,s1p12,control,1,142,790,790,790,true,39,right,incongruent,up,center
1,s1p12,control,1,143,618,618,618,true,37,left,incongruent,down,center
1,s1p12,control,1,144,618,618,618,true,39,right,congruent,down,spatial
1,s1p13,meditation,1,1,383,383,383,true,39,right,neutral,up,spatial
1,s1p13,meditation,1,2,483,483,483,true,37,left,neutral,up,center
1,s1p13,meditation,1,3,620,620,620,true,37,left,incongruent,down,center
1,s1p13,meditation,1,4,392,392,392,true,39,right,incongruent,up,spatial
1,s1p13,meditation,1,5,392,392,392,true,39,right,neutral,down,spatial
1,s1p13,meditation,1,6,413,413,413,true,39,right,neutral,up,center
1,s1p13,meditation,1,7,380,380,380,true,39,right,congruent,down,double
1,s1p13,meditation,1,8,341,341,341,true,39,right,neutral,up,double
1,s1p13,meditation,1,10,505,505,505,true,39,right,congruent,down,nocue
1,s1p13,meditation,1,11,530,530,530,true,39,right,incongruent,up,nocue
1,s1p13,meditation,1,12,426,426,426,true,39,right,neutral,down,center
1,s1p13,meditation,1,13,514,514,514,true,37,left,congruent,down,double
1,s1p13,meditation,1,14,515,515,515,true,39,right,neutral,down,nocue
1,s1p13,meditation,1,15,504,504,504,true,37,left,neutral,down,double
1,s1p13,meditation,1,16,671,671,671,true,37,left,congruent,up,nocue
1,s1p13,meditation,1,18,845,845,845,true,37,left,incongruent,up,nocue
1,s1p13,meditation,1,19,683,683,683,true,37,left,neutral,down,center
1,s1p13,meditation,1,20,525,525,525,true,39,right,congruent,up,center
1,s1p13,meditation,1,21,493,493,493,true,37,left,congruent,down,center
1,s1p13,meditation,1,22,713,713,713,true,37,left,incongruent,down,double
1,s1p13,meditation,1,23,396,396,396,true,39,right,incongruent,down,spatial
1,s1p13,meditation,1,24,528,528,528,true,37,left,congruent,down,nocue
1,s1p13,meditation,1,25,588,588,588,true,39,right,congruent,down,center
1,s1p13,meditation,1,26,574,574,574,true,39,right,congruent,up,double
1,s1p13,meditation,1,27,529,529,529,true,37,left,neutral,up,spatial
1,s1p13,meditation,1,28,441,441,441,true,37,left,congruent,down,spatial
1,s1p13,meditation,1,29,675,675,675,true,37,left,congruent,up,center
1,s1p13,meditation,1,30,562,562,562,true,37,left,incongruent,up,spatial
1,s1p13,meditation,1,31,449,449,449,true,37,left,incongruent,up,center
1,s1p13,meditation,1,32,665,665,665,true,37,left,incongruent,down,nocue
1,s1p13,meditation,1,33,533,533,533,true,39,right,congruent,up,nocue
1,s1p13,meditation,1,34,468,468,468,true,37,left,neutral,down,spatial
1,s1p13,meditation,1,35,572,572,572,true,39,right,incongruent,up,double
1,s1p13,meditation,1,36,559,559,559,true,37,left,neutral,up,nocue
1,s1p13,meditation,1,37,474,474,474,true,39,right,neutral,down,double
1,s1p13,meditation,1,38,598,598,598,true,37,left,neutral,up,double
1,s1p13,meditation,1,40,624,624,624,true,39,right,incongruent,up,center
1,s1p13,meditation,1,41,444,444,444,true,39,right,congruent,up,spatial
1,s1p13,meditation,1,42,576,576,576,true,37,left,neutral,down,nocue
1,s1p13,meditation,1,44,564,564,564,true,37,left,incongruent,down,spatial
1,s1p13,meditation,1,45,759,759,759,true,37,left,incongruent,up,double
1,s1p13,meditation,1,46,541,541,541,true,39,right,incongruent,down,double
1,s1p13,meditation,1,47,517,517,517,true,37,left,congruent,up,spatial
1,s1p13,meditation,1,48,441,441,441,true,39,right,congruent,down,spatial
1,s1p13,meditation,1,49,702,702,702,true,37,left,congruent,down,double
1,s1p13,meditation,1,50,462,462,462,true,37,left,congruent,down,spatial
1,s1p13,meditation,1,51,522,522,522,true,39,right,congruent,up,center
1,s1p13,meditation,1,52,498,498,498,true,37,left,incongruent,up,double
1,s1p13,meditation,1,53,525,525,525,true,39,right,congruent,down,spatial
1,s1p13,meditation,1,54,600,600,600,true,37,left,neutral,up,center
1,s1p13,meditation,1,56,551,551,551,true,39,right,congruent,up,spatial
1,s1p13,meditation,1,57,608,608,608,true,39,right,neutral,up,center
1,s1p13,meditation,1,58,756,756,756,true,37,left,neutral,down,nocue
1,s1p13,meditation,1,59,542,542,542,true,37,left,congruent,down,center
1,s1p13,meditation,1,60,473,473,473,true,37,left,neutral,down,double
1,s1p13,meditation,1,61,829,829,829,true,39,right,incongruent,up,nocue
1,s1p13,meditation,1,62,664,664,664,true,37,left,incongruent,down,center
1,s1p13,meditation,1,63,447,447,447,true,37,left,incongruent,down,spatial
1,s1p13,meditation,1,64,659,659,659,true,37,left,incongruent,down,double
1,s1p13,meditation,1,65,485,485,485,true,37,left,neutral,down,center
1,s1p13,meditation,1,66,749,749,749,true,39,right,neutral,up,nocue
1,s1p13,meditation,1,67,601,601,601,true,39,right,incongruent,down,double
1,s1p13,meditation,1,68,613,613,613,true,39,right,incongruent,up,center
1,s1p13,meditation,1,69,649,649,649,true,37,left,congruent,down,nocue
1,s1p13,meditation,1,70,491,491,491,true,37,left,neutral,up,spatial
1,s1p13,meditation,1,72,859,859,859,true,39,right,congruent,down,nocue
1,s1p13,meditation,1,73,658,658,658,true,39,right,congruent,up,nocue
1,s1p13,meditation,1,74,599,599,599,true,39,right,neutral,down,center
1,s1p13,meditation,1,75,618,618,618,true,39,right,congruent,up,double
1,s1p13,meditation,1,76,698,698,698,true,39,right,neutral,down,nocue
1,s1p13,meditation,1,77,533,533,533,true,37,left,incongruent,up,spatial
1,s1p13,meditation,1,78,582,582,582,true,37,left,congruent,up,center
1,s1p13,meditation,1,79,583,583,583,true,39,right,neutral,down,double
1,s1p13,meditation,1,80,713,713,713,true,37,left,congruent,up,nocue
1,s1p13,meditation,1,81,682,682,682,true,37,left,incongruent,up,center
1,s1p13,meditation,1,82,449,449,449,true,39,right,incongruent,up,double
1,s1p13,meditation,1,84,579,579,579,true,39,right,congruent,down,center
1,s1p13,meditation,1,85,713,713,713,true,39,right,congruent,down,double
1,s1p13,meditation,1,86,546,546,546,true,39,right,neutral,up,spatial
1,s1p13,meditation,1,87,622,622,622,true,39,right,incongruent,up,spatial
1,s1p13,meditation,1,88,501,501,501,true,37,left,congruent,up,spatial
1,s1p13,meditation,1,89,771,771,771,true,37,left,neutral,up,double
1,s1p13,meditation,1,90,600,600,600,true,37,left,neutral,up,nocue
1,s1p13,meditation,1,91,453,453,453,true,37,left,congruent,up,double
1,s1p13,meditation,1,92,784,784,784,true,39,right,incongruent,down,center
1,s1p13,meditation,1,93,422,422,422,true,39,right,neutral,down,spatial
1,s1p13,meditation,1,94,711,711,711,true,39,right,neutral,up,double
1,s1p13,meditation,1,95,455,455,455,true,37,left,neutral,down,spatial
1,s1p13,meditation,1,96,693,693,693,true,39,right,incongruent,down,nocue
1,s1p13,meditation,1,97,720,720,720,true,39,right,incongruent,up,center
1,s1p13,meditation,1,98,419,419,419,true,39,right,congruent,up,spatial
1,s1p13,meditation,1,99,673,673,673,true,39,right,congruent,down,double
1,s1p13,meditation,1,100,566,566,566,true,39,right,neutral,down,nocue
1,s1p13,meditation,1,101,722,722,722,true,37,left,congruent,up,nocue
1,s1p13,meditation,1,103,817,817,817,true,37,left,neutral,down,nocue
1,s1p13,meditation,1,104,448,448,448,true,37,left,congruent,up,spatial
1,s1p13,meditation,1,105,669,669,669,true,37,left,neutral,down,center
1,s1p13,meditation,1,106,857,857,857,true,39,right,congruent,up,double
1,s1p13,meditation,1,107,688,688,688,true,39,right,neutral,up,nocue
1,s1p13,meditation,1,108,527,527,527,true,39,right,incongruent,down,spatial
1,s1p13,meditation,1,109,677,677,677,true,37,left,incongruent,up,nocue
1,s1p13,meditation,1,110,696,696,696,true,37,left,congruent,up,double
1,s1p13,meditation,1,111,554,554,554,true,39,right,neutral,up,double
1,s1p13,meditation,1,112,731,731,731,true,39,right,incongruent,down,center
1,s1p13,meditation,1,113,592,592,592,true,37,left,neutral,down,double
1,s1p13,meditation,1,114,622,622,622,true,39,right,neutral,up,center
1,s1p13,meditation,1,115,568,568,568,true,37,left,incongruent,down,double
1,s1p13,meditation,1,116,613,613,613,true,37,left,neutral,up,center
1,s1p13,meditation,1,117,565,565,565,true,37,left,congruent,down,center
1,s1p13,meditation,1,118,536,536,536,true,39,right,congruent,down,nocue
1,s1p13,meditation,1,119,635,635,635,true,37,left,congruent,up,center
1,s1p13,meditation,1,121,450,450,450,true,37,left,neutral,down,spatial
1,s1p13,meditation,1,122,622,622,622,true,37,left,incongruent,down,spatial
1,s1p13,meditation,1,123,838,838,838,true,37,left,incongruent,up,double
1,s1p13,meditation,1,124,640,640,640,true,37,left,neutral,up,double
1,s1p13,meditation,1,125,693,693,693,true,39,right,neutral,down,double
1,s1p13,meditation,1,127,563,563,563,true,39,right,incongruent,up,double
1,s1p13,meditation,1,128,482,482,482,true,39,right,neutral,up,spatial
1,s1p13,meditation,1,129,698,698,698,true,37,left,congruent,down,double
1,s1p13,meditation,1,130,570,570,570,true,37,left,congruent,down,nocue
1,s1p13,meditation,1,131,641,641,641,true,37,left,neutral,up,spatial
1,s1p13,meditation,1,132,612,612,612,true,39,right,congruent,up,nocue
1,s1p13,meditation,1,133,558,558,558,true,39,right,neutral,down,center
1,s1p13,meditation,1,134,693,693,693,true,39,right,incongruent,down,double
1,s1p13,meditation,1,135,389,389,389,true,39,right,neutral,down,spatial
1,s1p13,meditation,1,136,678,678,678,true,39,right,incongruent,down,nocue
1,s1p13,meditation,1,137,608,608,608,true,37,left,neutral,up,nocue
1,s1p13,meditation,1,138,680,680,680,true,37,left,incongruent,down,center
1,s1p13,meditation,1,139,518,518,518,true,39,right,congruent,down,center
1,s1p13,meditation,1,140,473,473,473,true,37,left,congruent,down,spatial
1,s1p13,meditation,1,141,446,446,446,true,39,right,incongruent,up,spatial
1,s1p13,meditation,1,142,407,407,407,true,37,left,incongruent,up,spatial
1,s1p13,meditation,1,143,427,427,427,true,39,right,congruent,down,spatial
1,s1p13,meditation,1,144,534,534,534,true,39,right,congruent,up,center
1,s1p14,meditation,1,1,577,577,577,true,39,right,congruent,up,center
1,s1p14,meditation,1,2,613,613,613,true,39,right,congruent,up,double
1,s1p14,meditation,1,3,656,656,656,true,37,left,incongruent,down,nocue
1,s1p14,meditation,1,4,475,475,475,true,37,left,neutral,down,spatial
1,s1p14,meditation,1,5,574,574,574,true,37,left,neutral,up,nocue
1,s1p14,meditation,1,6,510,510,510,true,37,left,neutral,down,nocue
1,s1p14,meditation,1,7,635,635,635,true,39,right,incongruent,up,nocue
1,s1p14,meditation,1,8,762,762,762,true,39,right,incongruent,down,center
1,s1p14,meditation,1,9,746,746,746,true,37,left,congruent,up,double
1,s1p14,meditation,1,10,607,607,607,true,39,right,incongruent,up,double
1,s1p14,meditation,1,11,698,698,698,true,37,left,incongruent,up,spatial
1,s1p14,meditation,1,12,558,558,558,true,39,right,congruent,down,center
1,s1p14,meditation,1,13,577,577,577,true,37,left,incongruent,up,double
1,s1p14,meditation,1,14,617,617,617,true,39,right,neutral,down,spatial
1,s1p14,meditation,1,15,606,606,606,true,39,right,congruent,up,nocue
1,s1p14,meditation,1,16,646,646,646,true,37,left,incongruent,up,center
1,s1p14,meditation,1,17,645,645,645,true,37,left,congruent,down,center
1,s1p14,meditation,1,18,559,559,559,true,37,left,incongruent,down,spatial
1,s1p14,meditation,1,19,503,503,503,true,37,left,congruent,up,center
1,s1p14,meditation,1,20,396,396,396,true,37,left,congruent,down,double
1,s1p14,meditation,1,21,543,543,543,true,39,right,incongruent,up,center
1,s1p14,meditation,1,22,524,524,524,true,39,right,congruent,down,nocue
1,s1p14,meditation,1,23,561,561,561,true,39,right,neutral,down,nocue
1,s1p14,meditation,1,24,675,675,675,true,39,right,neutral,up,double
1,s1p14,meditation,1,25,698,698,698,true,39,right,incongruent,up,spatial
1,s1p14,meditation,1,26,578,578,578,true,39,right,neutral,down,center
1,s1p14,meditation,1,27,617,617,617,true,39,right,neutral,up,center
1,s1p14,meditation,1,28,631,631,631,true,37,left,neutral,up,spatial
1,s1p14,meditation,1,29,509,509,509,true,39,right,congruent,down,double
1,s1p14,meditation,1,30,456,456,456,true,39,right,congruent,down,spatial
1,s1p14,meditation,1,31,663,663,663,true,37,left,incongruent,down,center
1,s1p14,meditation,1,32,580,580,580,true,39,right,incongruent,down,spatial
1,s1p14,meditation,1,33,576,576,576,true,39,right,neutral,up,nocue
1,s1p14,meditation,1,34,753,753,753,true,37,left,congruent,down,nocue
1,s1p14,meditation,1,35,843,843,843,true,39,right,incongruent,down,double
1,s1p14,meditation,1,36,569,569,569,true,37,left,neutral,up,center
1,s1p14,meditation,1,37,500,500,500,true,39,right,congruent,up,spatial
1,s1p14,meditation,1,38,372,372,372,true,37,left,congruent,down,spatial
1,s1p14,meditation,1,39,539,539,539,true,39,right,neutral,down,double
1,s1p14,meditation,1,40,832,832,832,true,39,right,incongruent,down,nocue
1,s1p14,meditation,1,41,636,636,636,true,39,right,neutral,up,spatial
1,s1p14,meditation,1,42,651,651,651,true,37,left,incongruent,down,double
1,s1p14,meditation,1,43,679,679,679,true,37,left,neutral,down,center
1,s1p14,meditation,1,44,567,567,567,true,37,left,neutral,down,double
1,s1p14,meditation,1,45,824,824,824,true,37,left,incongruent,up,nocue
1,s1p14,meditation,1,46,607,607,607,true,37,left,congruent,up,nocue
1,s1p14,meditation,1,47,491,491,491,true,37,left,neutral,up,double
1,s1p14,meditation,1,48,421,421,421,true,37,left,congruent,up,spatial
1,s1p14,meditation,1,49,565,565,565,true,37,left,congruent,up,double
1,s1p14,meditation,1,50,588,588,588,true,39,right,neutral,up,nocue
1,s1p14,meditation,1,51,715,715,715,true,39,right,incongruent,down,center
1,s1p14,meditation,1,52,668,668,668,true,37,left,congruent,down,double
1,s1p14,meditation,1,53,665,665,665,true,37,left,congruent,down,center
1,s1p14,meditation,1,54,541,541,541,true,37,left,congruent,up,center
1,s1p14,meditation,1,55,672,672,672,true,37,left,incongruent,down,nocue
1,s1p14,meditation,1,56,696,696,696,true,39,right,congruent,up,center
1,s1p14,meditation,1,57,544,544,544,true,39,right,neutral,down,nocue
1,s1p14,meditation,1,58,738,738,738,true,39,right,incongruent,up,double
1,s1p14,meditation,1,59,846,846,846,true,39,right,incongruent,up,nocue
1,s1p14,meditation,1,60,525,525,525,true,39,right,congruent,up,spatial
1,s1p14,meditation,1,62,577,577,577,true,39,right,congruent,down,center
1,s1p14,meditation,1,63,628,628,628,true,37,left,neutral,down,nocue
1,s1p14,meditation,1,64,616,616,616,true,37,left,neutral,up,double
1,s1p14,meditation,1,65,630,630,630,true,39,right,neutral,up,center
1,s1p14,meditation,1,66,538,538,538,true,37,left,neutral,down,center
1,s1p14,meditation,1,67,702,702,702,true,37,left,incongruent,down,double
1,s1p14,meditation,1,68,813,813,813,true,37,left,incongruent,up,nocue
1,s1p14,meditation,1,69,487,487,487,true,37,left,neutral,down,spatial
1,s1p14,meditation,1,70,719,719,719,true,39,right,neutral,down,center
1,s1p14,meditation,1,71,800,800,800,true,39,right,congruent,up,nocue
1,s1p14,meditation,1,72,682,682,682,true,39,right,congruent,down,spatial
1,s1p14,meditation,1,73,777,777,777,true,39,right,incongruent,up,spatial
1,s1p14,meditation,1,74,615,615,615,true,39,right,congruent,up,double
1,s1p14,meditation,1,75,656,656,656,true,37,left,congruent,down,nocue
1,s1p14,meditation,1,76,731,731,731,true,39,right,incongruent,down,double
1,s1p14,meditation,1,77,596,596,596,true,39,right,neutral,up,double
1,s1p14,meditation,1,78,730,730,730,true,37,left,incongruent,up,spatial
1,s1p14,meditation,1,79,547,547,547,true,37,left,neutral,up,spatial
1,s1p14,meditation,1,80,738,738,738,true,37,left,incongruent,up,double
1,s1p14,meditation,1,81,761,761,761,true,37,left,neutral,down,double
1,s1p14,meditation,1,82,415,415,415,true,37,left,congruent,up,spatial
1,s1p14,meditation,1,83,621,621,621,true,39,right,congruent,down,double
1,s1p14,meditation,1,84,714,714,714,true,37,left,incongruent,down,center
1,s1p14,meditation,1,85,756,756,756,true,37,left,congruent,up,nocue
1,s1p14,meditation,1,86,453,453,453,true,37,left,incongruent,down,spatial
1,s1p14,meditation,1,87,821,821,821,true,39,right,incongruent,up,center
1,s1p14,meditation,1,88,709,709,709,true,39,right,neutral,up,spatial
1,s1p14,meditation,1,89,573,573,573,true,37,left,neutral,up,nocue
1,s1p14,meditation,1,90,501,501,501,true,37,left,neutral,up,center
1,s1p14,meditation,1,91,656,656,656,true,39,right,incongruent,down,nocue
1,s1p14,meditation,1,92,597,597,597,true,37,left,congruent,down,spatial
1,s1p14,meditation,1,93,566,566,566,true,39,right,neutral,down,spatial
1,s1p14,meditation,1,94,709,709,709,true,39,right,incongruent,down,spatial
1,s1p14,meditation,1,95,672,672,672,true,39,right,congruent,down,nocue
1,s1p14,meditation,1,96,597,597,597,true,39,right,neutral,down,double
1,s1p14,meditation,1,97,523,523,523,true,37,left,congruent,up,double
1,s1p14,meditation,1,99,657,657,657,true,37,left,neutral,up,center
1,s1p14,meditation,1,100,565,565,565,true,39,right,congruent,up,spatial
1,s1p14,meditation,1,101,653,653,653,true,39,right,neutral,up,center
1,s1p14,meditation,1,102,476,476,476,true,39,right,congruent,down,spatial
1,s1p14,meditation,1,103,687,687,687,true,39,right,incongruent,down,double
1,s1p14,meditation,1,105,640,640,640,true,39,right,incongruent,down,spatial
1,s1p14,meditation,1,106,659,659,659,true,37,left,incongruent,down,nocue
1,s1p14,meditation,1,107,644,644,644,true,37,left,congruent,down,double
1,s1p14,meditation,1,108,806,806,806,true,37,left,incongruent,up,nocue
1,s1p14,meditation,1,109,764,764,764,true,39,right,incongruent,down,center
1,s1p14,meditation,1,110,654,654,654,true,37,left,neutral,up,spatial
1,s1p14,meditation,1,111,547,547,547,true,39,right,neutral,up,double
1,s1p14,meditation,1,112,923,923,923,true,39,right,incongruent,up,center
1,s1p14,meditation,1,113,646,646,646,true,39,right,neutral,down,nocue
1,s1p14,meditation,1,114,657,657,657,true,39,right,neutral,down,center
1,s1p14,meditation,1,115,760,760,760,true,39,right,incongruent,down,nocue
1,s1p14,meditation,1,116,719,719,719,true,37,left,incongruent,up,center
1,s1p14,meditation,1,117,647,647,647,true,37,left,congruent,up,spatial
1,s1p14,meditation,1,118,453,453,453,true,37,left,neutral,up,double
1,s1p14,meditation,1,119,701,701,701,true,37,left,incongruent,down,spatial
1,s1p14,meditation,1,120,471,471,471,true,37,left,neutral,down,center
1,s1p14,meditation,1,121,733,733,733,true,39,right,congruent,down,nocue
1,s1p14,meditation,1,122,662,662,662,true,39,right,neutral,down,double
1,s1p14,meditation,1,123,499,499,499,true,37,left,neutral,down,spatial
1,s1p14,meditation,1,124,637,637,637,true,39,right,congruent,up,center
1,s1p14,meditation,1,125,502,502,502,true,37,left,neutral,down,nocue
1,s1p14,meditation,1,126,668,668,668,true,37,left,congruent,down,nocue
1,s1p14,meditation,1,127,467,467,467,true,39,right,neutral,up,spatial
1,s1p14,meditation,1,128,726,726,726,true,37,left,incongruent,down,double
1,s1p14,meditation,1,129,725,725,725,true,37,left,congruent,up,center
1,s1p14,meditation,1,130,533,533,533,true,37,left,congruent,up,nocue
1,s1p14,meditation,1,131,581,581,581,true,39,right,incongruent,up,spatial
1,s1p14,meditation,1,132,537,537,537,true,39,right,neutral,down,spatial
1,s1p14,meditation,1,133,707,707,707,true,37,left,neutral,up,nocue
1,s1p14,meditation,1,134,693,693,693,true,39,right,neutral,up,nocue
1,s1p14,meditation,1,135,564,564,564,true,39,right,congruent,down,double
1,s1p14,meditation,1,136,799,799,799,true,39,right,incongruent,up,double
1,s1p14,meditation,1,137,603,603,603,true,39,right,congruent,up,double
1,s1p14,meditation,1,138,747,747,747,true,37,left,incongruent,down,center
1,s1p14,meditation,1,139,512,512,512,true,39,right,congruent,down,center
1,s1p14,meditation,1,140,552,552,552,true,39,right,congruent,up,nocue
1,s1p14,meditation,1,141,555,555,555,true,37,left,incongruent,up,double
1,s1p14,meditation,1,142,538,538,538,true,37,left,congruent,down,spatial
1,s1p14,meditation,1,143,557,557,557,true,37,left,congruent,down,center
1,s1p14,meditation,1,144,485,485,485,true,37,left,neutral,down,double
1,s1p15,meditation,1,1,588,588,588,true,39,right,incongruent,down,nocue
1,s1p15,meditation,1,2,650,650,650,true,39,right,incongruent,up,double
1,s1p15,meditation,1,3,525,525,525,true,37,left,congruent,up,spatial
1,s1p15,meditation,1,4,534,534,534,true,37,left,congruent,down,spatial
1,s1p15,meditation,1,5,685,685,685,true,39,right,incongruent,up,center
1,s1p15,meditation,1,6,444,444,444,true,39,right,neutral,down,spatial
1,s1p15,meditation,1,7,536,536,536,true,37,left,incongruent,up,center
1,s1p15,meditation,1,8,650,650,650,true,37,left,neutral,up,double
1,s1p15,meditation,1,9,862,862,862,true,37,left,neutral,down,center
1,s1p15,meditation,1,10,525,525,525,true,37,left,neutral,down,nocue
1,s1p15,meditation,1,11,582,582,582,true,37,left,incongruent,up,double
1,s1p15,meditation,1,12,657,657,657,true,37,left,incongruent,down,nocue
1,s1p15,meditation,1,13,574,574,574,true,39,right,congruent,down,spatial
1,s1p15,meditation,1,14,669,669,669,true,39,right,incongruent,up,nocue
1,s1p15,meditation,1,15,688,688,688,true,37,left,congruent,up,center
1,s1p15,meditation,1,16,600,600,600,true,39,right,neutral,down,nocue
1,s1p15,meditation,1,17,573,573,573,true,39,right,neutral,up,spatial
1,s1p15,meditation,1,18,755,755,755,true,37,left,incongruent,down,double
1,s1p15,meditation,1,19,667,667,667,true,39,right,congruent,up,center
1,s1p15,meditation,1,20,630,630,630,true,37,left,neutral,up,nocue
1,s1p15,meditation,1,21,462,462,462,true,39,right,incongruent,down,spatial
1,s1p15,meditation,1,22,589,589,589,true,37,left,congruent,down,center
1,s1p15,meditation,1,23,682,682,682,true,37,left,incongruent,up,spatial
1,s1p15,meditation,1,24,659,659,659,true,39,right,congruent,down,double
1,s1p15,meditation,1,25,658,658,658,true,39,right,neutral,up,nocue
1,s1p15,meditation,1,26,682,682,682,true,37,left,congruent,down,double
1,s1p15,meditation,1,27,652,652,652,true,39,right,congruent,up,nocue
1,s1p15,meditation,1,28,703,703,703,true,39,right,incongruent,down,center
1,s1p15,meditation,1,29,694,694,694,true,37,left,neutral,up,center
1,s1p15,meditation,1,30,685,685,685,true,39,right,neutral,up,center
1,s1p15,meditation,1,31,511,511,511,true,39,right,incongruent,up,spatial
1,s1p15,meditation,1,32,581,581,581,true,37,left,incongruent,down,center
1,s1p15,meditation,1,33,446,446,446,true,39,right,congruent,up,spatial
1,s1p15,meditation,1,34,673,673,673,true,37,left,congruent,up,double
1,s1p15,meditation,1,35,552,552,552,true,39,right,neutral,down,double
1,s1p15,meditation,1,36,648,648,648,true,37,left,incongruent,up,nocue
1,s1p15,meditation,1,37,515,515,515,true,37,left,incongruent,down,spatial
1,s1p15,meditation,1,38,687,687,687,true,39,right,neutral,down,center
1,s1p15,meditation,1,39,483,483,483,true,37,left,neutral,up,spatial
1,s1p15,meditation,1,40,540,540,540,true,39,right,incongruent,down,double
1,s1p15,meditation,1,41,629,629,629,true,37,left,neutral,down,double
1,s1p15,meditation,1,42,684,684,684,true,39,right,congruent,down,center
1,s1p15,meditation,1,43,662,662,662,true,37,left,neutral,down,spatial
1,s1p15,meditation,1,44,859,859,859,true,39,right,congruent,up,double
1,s1p15,meditation,1,45,759,759,759,true,37,left,congruent,up,nocue
1,s1p15,meditation,1,46,781,781,781,true,37,left,congruent,down,nocue
1,s1p15,meditation,1,47,671,671,671,true,39,right,neutral,up,double
1,s1p15,meditation,1,48,622,622,622,true,39,right,congruent,down,nocue
1,s1p15,meditation,1,49,691,691,691,true,39,right,incongruent,down,nocue
1,s1p15,meditation,1,50,632,632,632,true,39,right,incongruent,down,spatial
1,s1p15,meditation,1,51,561,561,561,true,39,right,congruent,up,spatial
1,s1p15,meditation,1,52,535,535,535,true,39,right,incongruent,up,nocue
1,s1p15,meditation,1,53,489,489,489,true,39,right,congruent,down,spatial
1,s1p15,meditation,1,54,621,621,621,true,39,right,neutral,down,double
1,s1p15,meditation,1,55,667,667,667,true,37,left,congruent,up,double
1,s1p15,meditation,1,56,661,661,661,true,39,right,congruent,up,double
1,s1p15,meditation,1,57,692,692,692,true,37,left,neutral,up,double
1,s1p15,meditation,1,58,700,700,700,true,37,left,incongruent,up,center
1,s1p15,meditation,1,59,551,551,551,true,37,left,incongruent,down,double
1,s1p15,meditation,1,60,587,587,587,true,39,right,neutral,up,double
1,s1p15,meditation,1,61,518,518,518,true,39,right,congruent,down,double
1,s1p15,meditation,1,63,592,592,592,true,39,right,neutral,up,spatial
1,s1p15,meditation,1,64,712,712,712,true,37,left,incongruent,up,nocue
1,s1p15,meditation,1,65,710,710,710,true,39,right,incongruent,down,center
1,s1p15,meditation,1,66,721,721,721,true,39,right,incongruent,down,double
1,s1p15,meditation,1,67,538,538,538,true,39,right,neutral,down,center
1,s1p15,meditation,1,68,507,507,507,true,39,right,congruent,down,center
1,s1p15,meditation,1,69,531,531,531,true,37,left,congruent,down,spatial
1,s1p15,meditation,1,70,653,653,653,true,39,right,incongruent,up,spatial
1,s1p15,meditation,1,71,686,686,686,true,39,right,congruent,up,nocue
1,s1p15,meditation,1,72,631,631,631,true,37,left,incongruent,down,nocue
1,s1p15,meditation,1,73,566,566,566,true,37,left,congruent,up,spatial
1,s1p15,meditation,1,74,551,551,551,true,37,left,neutral,up,spatial
1,s1p15,meditation,1,75,593,593,593,true,37,left,neutral,down,spatial
1,s1p15,meditation,1,76,597,597,597,true,37,left,incongruent,down,center
1,s1p15,meditation,1,77,767,767,767,true,39,right,congruent,down,nocue
1,s1p15,meditation,1,78,623,623,623,true,39,right,neutral,up,center
1,s1p15,meditation,1,79,574,574,574,true,39,right,congruent,up,center
1,s1p15,meditation,1,80,530,530,530,true,37,left,incongruent,up,spatial
1,s1p15,meditation,1,81,588,588,588,true,37,left,congruent,up,center
1,s1p15,meditation,1,82,689,689,689,true,37,left,congruent,down,nocue
1,s1p15,meditation,1,83,709,709,709,true,39,right,neutral,down,nocue
1,s1p15,meditation,1,84,550,550,550,true,39,right,neutral,down,spatial
1,s1p15,meditation,1,85,686,686,686,true,37,left,neutral,up,center
1,s1p15,meditation,1,86,650,650,650,true,37,left,neutral,down,nocue
1,s1p15,meditation,1,87,915,915,915,true,37,left,incongruent,up,double
1,s1p15,meditation,1,88,633,633,633,true,39,right,incongruent,up,double
1,s1p15,meditation,1,89,732,732,732,true,37,left,congruent,down,center
1,s1p15,meditation,1,90,694,694,694,true,37,left,neutral,down,double
1,s1p15,meditation,1,91,764,764,764,true,37,left,neutral,up,nocue
1,s1p15,meditation,1,92,538,538,538,true,37,left,congruent,down,double
1,s1p15,meditation,1,93,519,519,519,true,37,left,incongruent,down,spatial
1,s1p15,meditation,1,94,554,554,554,true,37,left,neutral,down,center
1,s1p15,meditation,1,95,748,748,748,true,39,right,neutral,up,nocue
1,s1p15,meditation,1,96,782,782,782,true,39,right,incongruent,up,center
1,s1p15,meditation,1,97,615,615,615,true,39,right,incongruent,down,spatial
1,s1p15,meditation,1,98,606,606,606,true,39,right,incongruent,up,nocue
1,s1p15,meditation,1,99,746,746,746,true,37,left,congruent,up,nocue
1,s1p15,meditation,1,100,809,809,809,true,39,right,neutral,down,nocue
1,s1p15,meditation,1,101,561,561,561,true,39,right,congruent,up,spatial
1,s1p15,meditation,1,102,708,708,708,true,37,left,neutral,up,double
1,s1p15,meditation,1,103,588,588,588,true,37,left,incongruent,up,center
1,s1p15,meditation,1,104,427,427,427,true,39,right,neutral,up,double
1,s1p15,meditation,1,105,512,512,512,true,39,right,congruent,down,spatial
1,s1p15,meditation,1,106,525,525,525,true,37,left,neutral,down,spatial
1,s1p15,meditation,1,107,525,525,525,true,37,left,neutral,down,double
1,s1p15,meditation,1,108,942,942,942,true,39,right,incongruent,up,center
1,s1p15,meditation,1,109,700,700,700,true,37,left,congruent,up,spatial
1,s1p15,meditation,1,110,579,579,579,true,37,left,congruent,down,double
1,s1p15,meditation,1,111,517,517,517,true,39,right,neutral,up,center
1,s1p15,meditation,1,112,621,621,621,true,37,left,neutral,down,nocue
1,s1p15,meditation,1,113,543,543,543,true,37,left,congruent,down,center
1,s1p15,meditation,1,114,602,602,602,true,39,right,congruent,down,nocue
1,s1p15,meditation,1,115,664,664,664,true,37,left,incongruent,down,double
1,s1p15,meditation,1,116,540,540,540,true,37,left,congruent,down,nocue
1,s1p15,meditation,1,117,597,597,597,true,39,right,congruent,up,nocue
1,s1p15,meditation,1,118,646,646,646,true,37,left,neutral,down,center
1,s1p15,meditation,1,119,947,947,947,true,37,left,neutral,up,nocue
1,s1p15,meditation,1,120,489,489,489,true,39,right,neutral,down,center
1,s1p15,meditation,1,121,546,546,546,true,39,right,neutral,down,double
1,s1p15,meditation,1,122,571,571,571,true,39,right,congruent,down,double
1,s1p15,meditation,1,123,587,587,587,true,37,left,incongruent,down,spatial
1,s1p15,meditation,1,124,684,684,684,true,37,left,neutral,up,center
1,s1p15,meditation,1,125,672,672,672,true,37,left,incongruent,down,nocue
1,s1p15,meditation,1,126,537,537,537,true,39,right,congruent,up,double
1,s1p15,meditation,1,127,574,574,574,true,37,left,congruent,up,center
1,s1p15,meditation,1,128,674,674,674,true,37,left,congruent,down,spatial
1,s1p15,meditation,1,129,649,649,649,true,39,right,incongruent,down,double
1,s1p15,meditation,1,130,522,522,522,true,39,right,congruent,up,center
1,s1p15,meditation,1,131,384,384,384,true,39,right,neutral,up,spatial
1,s1p15,meditation,1,132,431,431,431,true,39,right,neutral,down,spatial
1,s1p15,meditation,1,133,657,657,657,true,37,left,incongruent,down,center
1,s1p15,meditation,1,134,641,641,641,true,39,right,neutral,up,nocue
1,s1p15,meditation,1,135,717,717,717,true,39,right,incongruent,down,center
1,s1p15,meditation,1,136,626,626,626,true,37,left,incongruent,up,nocue
1,s1p15,meditation,1,137,625,625,625,true,37,left,congruent,up,double
1,s1p15,meditation,1,138,650,650,650,true,39,right,incongruent,up,spatial
1,s1p15,meditation,1,139,504,504,504,true,37,left,incongruent,up,spatial
1,s1p15,meditation,1,140,717,717,717,true,39,right,congruent,down,center
1,s1p15,meditation,1,141,616,616,616,true,37,left,neutral,up,spatial
1,s1p15,meditation,1,142,729,729,729,true,39,right,incongruent,up,double
1,s1p15,meditation,1,143,680,680,680,true,39,right,incongruent,down,nocue
1,s1p15,meditation,1,144,621,621,621,true,37,left,incongruent,up,double
1,s1p16,control,1,1,665,665,665,true,39,right,incongruent,up,spatial
1,s1p16,control,1,2,714,714,714,true,39,right,congruent,down,center
1,s1p16,control,1,3,666,666,666,true,37,left,incongruent,up,nocue
1,s1p16,control,1,4,850,850,850,true,37,left,neutral,up,double
1,s1p16,control,1,5,717,717,717,true,37,left,incongruent,up,center
1,s1p16,control,1,6,533,533,533,true,39,right,congruent,up,spatial
1,s1p16,control,1,7,512,512,512,true,37,left,congruent,down,spatial
1,s1p16,control,1,8,857,857,857,true,37,left,neutral,down,center
1,s1p16,control,1,9,635,635,635,true,37,left,congruent,up,center
1,s1p16,control,1,10,885,885,885,true,37,left,neutral,down,double
1,s1p16,control,1,11,765,765,765,true,37,left,incongruent,down,nocue
1,s1p16,control,1,12,538,538,538,true,39,right,congruent,up,nocue
1,s1p16,control,1,13,539,539,539,true,37,left,congruent,down,double
1,s1p16,control,1,14,874,874,874,true,37,left,incongruent,up,spatial
1,s1p16,control,1,15,582,582,582,true,37,left,congruent,down,center
1,s1p16,control,1,16,819,819,819,true,37,left,congruent,down,nocue
1,s1p16,control,1,17,605,605,605,true,37,left,neutral,up,center
1,s1p16,control,1,18,602,602,602,true,39,right,congruent,up,center
1,s1p16,control,1,19,588,588,588,true,37,left,congruent,up,nocue
1,s1p16,control,1,20,688,688,688,true,39,right,neutral,down,double
1,s1p16,control,1,21,569,569,569,true,37,left,neutral,up,nocue
1,s1p16,control,1,22,771,771,771,true,39,right,incongruent,up,nocue
1,s1p16,control,1,23,656,656,656,true,37,left,incongruent,down,center
1,s1p16,control,1,24,563,563,563,true,39,right,neutral,up,center
1,s1p16,control,1,25,561,561,561,true,37,left,congruent,up,spatial
1,s1p16,control,1,26,644,644,644,true,39,right,neutral,up,nocue
1,s1p16,control,1,27,504,504,504,true,37,left,neutral,down,spatial
1,s1p16,control,1,28,548,548,548,true,37,left,incongruent,down,spatial
1,s1p16,control,1,29,524,524,524,true,39,right,incongruent,down,spatial
1,s1p16,control,1,30,623,623,623,true,37,left,congruent,up,double
1,s1p16,control,1,31,482,482,482,true,39,right,neutral,up,double
1,s1p16,control,1,32,613,613,613,true,39,right,congruent,down,double
1,s1p16,control,1,33,576,576,576,true,37,left,incongruent,up,double
1,s1p16,control,1,34,518,518,518,true,39,right,neutral,up,spatial
1,s1p16,control,1,35,618,618,618,true,39,right,congruent,down,spatial
1,s1p16,control,1,36,535,535,535,true,39,right,congruent,up,double
1,s1p16,control,1,37,572,572,572,true,39,right,neutral,down,spatial
1,s1p16,control,1,38,522,522,522,true,39,right,congruent,down,nocue
1,s1p16,control,1,39,611,611,611,true,39,right,neutral,down,nocue
1,s1p16,control,1,40,547,547,547,true,39,right,neutral,down,center
1,s1p16,control,1,41,713,713,713,true,37,left,neutral,up,spatial
1,s1p16,control,1,42,734,734,734,true,37,left,incongruent,down,double
1,s1p16,control,1,43,640,640,640,true,39,right,incongruent,up,center
1,s1p16,control,1,44,783,783,783,true,39,right,incongruent,down,double
1,s1p16,control,1,45,760,760,760,true,39,right,incongruent,down,nocue
1,s1p16,control,1,46,723,723,723,true,37,left,neutral,down,nocue
1,s1p16,control,1,47,1057,1057,1057,true,39,right,incongruent,down,center
1,s1p16,control,1,48,714,714,714,true,39,right,incongruent,up,double
1,s1p16,control,1,49,666,666,666,true,39,right,congruent,down,center
1,s1p16,control,1,50,579,579,579,true,39,right,neutral,up,nocue
1,s1p16,control,1,51,576,576,576,true,39,right,congruent,down,spatial
1,s1p16,control,1,52,692,692,692,true,39,right,incongruent,up,nocue
1,s1p16,control,1,53,557,557,557,true,37,left,congruent,up,spatial
1,s1p16,control,1,54,732,732,732,true,39,right,incongruent,up,center
1,s1p16,control,1,55,635,635,635,true,39,right,neutral,up,center
1,s1p16,control,1,56,698,698,698,true,37,left,congruent,down,nocue
1,s1p16,control,1,57,641,641,641,true,39,right,incongruent,up,double
1,s1p16,control,1,58,649,649,649,true,37,left,incongruent,up,double
1,s1p16,control,1,59,505,505,505,true,39,right,congruent,up,double
1,s1p16,control,1,60,703,703,703,true,39,right,incongruent,down,double
1,s1p16,control,1,61,669,669,669,true,37,left,neutral,down,spatial
1,s1p16,control,1,62,536,536,536,true,39,right,congruent,up,center
1,s1p16,control,1,63,735,735,735,true,37,left,incongruent,down,center
1,s1p16,control,1,64,646,646,646,true,39,right,neutral,down,nocue
1,s1p16,control,1,65,637,637,637,true,39,right,congruent,up,nocue
1,s1p16,control,1,66,752,752,752,true,39,right,incongruent,down,center
1,s1p16,control,1,67,530,530,530,true,37,left,neutral,up,spatial
1,s1p16,control,1,68,623,623,623,true,39,right,incongruent,up,spatial
1,s1p16,control,1,69,516,516,516,true,37,left,neutral,up,double
1,s1p16,control,1,70,760,760,760,true,37,left,incongruent,down,double
1,s1p16,control,1,71,549,549,549,true,37,left,neutral,down,double
1,s1p16,control,1,72,443,443,443,true,37,left,congruent,down,spatial
1,s1p16,control,1,73,680,680,680,true,37,left,congruent,up,nocue
1,s1p16,control,1,74,562,562,562,true,39,right,congruent,up,spatial
1,s1p16,control,1,75,713,713,713,true,37,left,congruent,down,center
1,s1p16,control,1,76,719,719,719,true,39,right,neutral,up,double
1,s1p16,control,1,77,813,813,813,true,37,left,incongruent,down,nocue
1,s1p16,control,1,78,706,706,706,true,39,right,neutral,down,spatial
1,s1p16,control,1,79,475,475,475,true,37,left,congruent,up,double
1,s1p16,control,1,80,530,530,530,true,39,right,congruent,down,nocue
1,s1p16,control,1,81,801,801,801,true,37,left,neutral,down,center
1,s1p16,control,1,82,638,638,638,true,39,right,congruent,down,double
1,s1p16,control,1,83,613,613,613,true,37,left,congruent,up,center
1,s1p16,control,1,84,596,596,596,true,39,right,neutral,down,center
1,s1p16,control,1,85,864,864,864,true,39,right,incongruent,down,spatial
1,s1p16,control,1,86,550,550,550,true,37,left,neutral,up,center
1,s1p16,control,1,87,522,522,522,true,39,right,neutral,up,spatial
1,s1p16,control,1,88,615,615,615,true,39,right,neutral,down,double
1,s1p16,control,1,89,778,778,778,true,37,left,neutral,down,nocue
1,s1p16,control,1,90,1035,1035,1035,true,37,left,incongruent,up,nocue
1,s1p16,control,1,91,697,697,697,true,37,left,incongruent,down,spatial
1,s1p16,control,1,92,626,626,626,true,37,left,congruent,down,double
1,s1p16,control,1,93,568,568,568,true,37,left,incongruent,up,spatial
1,s1p16,control,1,94,529,529,529,true,37,left,neutral,up,nocue
1,s1p16,control,1,95,661,661,661,true,37,left,incongruent,up,center
1,s1p16,control,1,96,1034,1034,1034,true,39,right,incongruent,down,nocue
1,s1p16,control,1,97,654,654,654,true,39,right,neutral,up,spatial
1,s1p16,control,1,98,947,947,947,true,37,left,incongruent,down,double
1,s1p16,control,1,99,718,718,718,true,39,right,congruent,down,center
1,s1p16,control,1,100,702,702,702,true,39,right,incongruent,up,nocue
1,s1p16,control,1,101,643,643,643,true,39,right,congruent,up,nocue
1,s1p16,control,1,102,492,492,492,true,37,left,congruent,up,spatial
1,s1p16,control,1,104,831,831,831,true,37,left,congruent,up,nocue
1,s1p16,control,1,105,718,718,718,true,37,left,congruent,up,center
1,s1p16,control,1,106,759,759,759,true,39,right,incongruent,down,center
1,s1p16,control,1,107,634,634,634,true,39,right,congruent,down,spatial
1,s1p16,control,1,108,489,489,489,true,39,right,neutral,down,spatial
1,s1p16,control,1,109,599,599,599,true,37,left,incongruent,up,spatial
1,s1p16,control,1,110,929,929,929,true,39,right,incongruent,up,spatial
1,s1p16,control,1,111,533,533,533,true,39,right,incongruent,up,double
1,s1p16,control,1,112,549,549,549,true,37,left,neutral,up,spatial
1,s1p16,control,1,113,648,648,648,true,37,left,congruent,up,double
1,s1p16,control,1,114,499,499,499,true,37,left,incongruent,up,double
1,s1p16,control,1,115,933,933,933,true,37,left,neutral,down,center
1,s1p16,control,1,116,615,615,615,true,37,left,incongruent,up,center
1,s1p16,control,1,117,758,758,758,true,37,left,incongruent,down,spatial
1,s1p16,control,1,118,1014,1014,1014,true,39,right,incongruent,down,double
1,s1p16,control,1,119,722,722,722,true,39,right,congruent,down,nocue
1,s1p16,control,1,120,670,670,670,true,39,right,congruent,down,double
1,s1p16,control,1,121,683,683,683,true,37,left,neutral,up,center
1,s1p16,control,1,122,595,595,595,true,39,right,neutral,up,nocue
1,s1p16,control,1,123,537,537,537,true,37,left,congruent,down,spatial
1,s1p16,control,1,124,645,645,645,true,39,right,neutral,up,center
1,s1p16,control,1,125,535,535,535,true,39,right,congruent,up,center
1,s1p16,control,1,126,703,703,703,true,37,left,incongruent,up,nocue
1,s1p16,control,1,127,468,468,468,true,37,left,neutral,up,double
1,s1p16,control,1,128,663,663,663,true,37,left,congruent,down,nocue
1,s1p16,control,1,129,487,487,487,true,37,left,neutral,up,nocue
1,s1p16,control,1,130,462,462,462,true,37,left,congruent,down,double
1,s1p16,control,1,131,847,847,847,true,37,left,incongruent,down,nocue
1,s1p16,control,1,132,653,653,653,true,37,left,congruent,down,center
1,s1p16,control,1,134,972,972,972,true,39,right,incongruent,down,nocue
1,s1p16,control,1,135,544,544,544,true,39,right,congruent,up,double
1,s1p16,control,1,136,503,503,503,true,39,right,congruent,up,spatial
1,s1p16,control,1,137,716,716,716,true,39,right,incongruent,down,spatial
1,s1p16,control,1,138,635,635,635,true,39,right,neutral,down,double
1,s1p16,control,1,139,765,765,765,true,39,right,incongruent,up,center
1,s1p16,control,1,140,618,618,618,true,39,right,neutral,up,double
1,s1p16,control,1,141,569,569,569,true,39,right,neutral,down,center
1,s1p16,control,1,142,687,687,687,true,37,left,neutral,down,double
1,s1p16,control,1,143,658,658,658,true,37,left,neutral,down,nocue
1,s1p16,control,1,144,485,485,485,true,37,left,neutral,down,spatial
1,s1p17,meditation,1,1,621,621,621,true,39,right,congruent,down,center
1,s1p17,meditation,1,3,647,647,647,true,37,left,congruent,down,double
1,s1p17,meditation,1,4,536,536,536,true,39,right,neutral,down,nocue
1,s1p17,meditation,1,5,528,528,528,true,39,right,neutral,up,center
1,s1p17,meditation,1,6,469,469,469,true,37,left,neutral,up,center
1,s1p17,meditation,1,8,428,428,428,true,39,right,neutral,up,spatial
1,s1p17,meditation,1,9,649,649,649,true,39,right,incongruent,up,nocue
1,s1p17,meditation,1,10,475,475,475,true,39,right,neutral,up,nocue
1,s1p17,meditation,1,11,504,504,504,true,37,left,incongruent,up,double
1,s1p17,meditation,1,12,504,504,504,true,37,left,congruent,up,center
1,s1p17,meditation,1,14,553,553,553,true,39,right,neutral,up,double
1,s1p17,meditation,1,15,552,552,552,true,37,left,neutral,up,nocue
1,s1p17,meditation,1,16,486,486,486,true,39,right,congruent,down,spatial
1,s1p17,meditation,1,17,457,457,457,true,39,right,neutral,down,spatial
1,s1p17,meditation,1,18,498,498,498,true,37,left,incongruent,up,spatial
1,s1p17,meditation,1,19,417,417,417,true,37,left,congruent,down,spatial
1,s1p17,meditation,1,20,490,490,490,true,39,right,congruent,up,double
1,s1p17,meditation,1,22,505,505,505,true,37,left,incongruent,up,center
1,s1p17,meditation,1,25,583,583,583,true,37,left,incongruent,down,double
1,s1p17,meditation,1,26,604,604,604,true,39,right,congruent,up,spatial
1,s1p17,meditation,1,27,594,594,594,true,39,right,neutral,down,double
1,s1p17,meditation,1,28,651,651,651,true,39,right,congruent,down,nocue
1,s1p17,meditation,1,29,619,619,619,true,39,right,congruent,up,nocue
1,s1p17,meditation,1,30,838,838,838,true,39,right,incongruent,down,nocue
1,s1p17,meditation,1,31,561,561,561,true,37,left,congruent,up,nocue
1,s1p17,meditation,1,32,507,507,507,true,37,left,neutral,down,nocue
1,s1p17,meditation,1,33,674,674,674,true,37,left,neutral,up,double
1,s1p17,meditation,1,35,636,636,636,true,39,right,incongruent,down,center
1,s1p17,meditation,1,36,587,587,587,true,37,left,incongruent,down,nocue
1,s1p17,meditation,1,37,492,492,492,true,37,left,neutral,down,center
1,s1p17,meditation,1,38,684,684,684,true,39,right,neutral,down,center
1,s1p17,meditation,1,40,351,351,351,true,37,left,neutral,up,spatial
1,s1p17,meditation,1,41,418,418,418,true,37,left,neutral,down,spatial
1,s1p17,meditation,1,42,519,519,519,true,37,left,incongruent,down,spatial
1,s1p17,meditation,1,43,549,549,549,true,39,right,congruent,down,double
1,s1p17,meditation,1,44,537,537,537,true,37,left,congruent,down,nocue
1,s1p17,meditation,1,45,581,581,581,true,37,left,congruent,up,double
1,s1p17,meditation,1,46,773,773,773,true,39,right,incongruent,up,double
1,s1p17,meditation,1,47,722,722,722,true,39,right,incongruent,up,spatial
1,s1p17,meditation,1,48,1150,1150,1150,true,39,right,incongruent,up,center
1,s1p17,meditation,1,49,576,576,576,true,39,right,incongruent,up,double
1,s1p17,meditation,1,50,551,551,551,true,39,right,neutral,down,center
1,s1p17,meditation,1,52,576,576,576,true,39,right,incongruent,up,spatial
1,s1p17,meditation,1,53,555,555,555,true,37,left,incongruent,down,spatial
1,s1p17,meditation,1,55,455,455,455,true,37,left,congruent,down,center
1,s1p17,meditation,1,56,388,388,388,true,39,right,neutral,up,spatial
1,s1p17,meditation,1,57,522,522,522,true,39,right,congruent,down,nocue
1,s1p17,meditation,1,58,618,618,618,true,37,left,incongruent,down,center
1,s1p17,meditation,1,59,549,549,549,true,37,left,neutral,down,spatial
1,s1p17,meditation,1,60,476,476,476,true,37,left,congruent,down,spatial
1,s1p17,meditation,1,61,537,537,537,true,37,left,incongruent,up,nocue
1,s1p17,meditation,1,62,536,536,536,true,39,right,neutral,down,spatial
1,s1p17,meditation,1,63,589,589,589,true,39,right,neutral,up,nocue
1,s1p17,meditation,1,64,441,441,441,true,37,left,incongruent,up,spatial
1,s1p17,meditation,1,65,694,694,694,true,37,left,congruent,down,nocue
1,s1p17,meditation,1,68,486,486,486,true,37,left,neutral,down,nocue
1,s1p17,meditation,1,69,617,617,617,true,37,left,incongruent,up,center
1,s1p17,meditation,1,70,561,561,561,true,39,right,neutral,up,double
1,s1p17,meditation,1,71,469,469,469,true,37,left,congruent,down,double
1,s1p17,meditation,1,72,445,445,445,true,37,left,congruent,up,spatial
1,s1p17,meditation,1,73,583,583,583,true,39,right,neutral,up,center
1,s1p17,meditation,1,74,608,608,608,true,37,left,incongruent,up,double
1,s1p17,meditation,1,75,591,591,591,true,37,left,incongruent,down,nocue
1,s1p17,meditation,1,76,461,461,461,true,37,left,congruent,up,double
1,s1p17,meditation,1,78,619,619,619,true,39,right,congruent,down,center
1,s1p17,meditation,1,79,616,616,616,true,39,right,congruent,up,double
1,s1p17,meditation,1,80,550,550,550,true,39,right,congruent,up,nocue
1,s1p17,meditation,1,81,485,485,485,true,39,right,incongruent,down,double
1,s1p17,meditation,1,83,570,570,570,true,39,right,neutral,down,double
1,s1p17,meditation,1,84,508,508,508,true,39,right,congruent,down,double
1,s1p17,meditation,1,85,514,514,514,true,37,left,neutral,down,double
1,s1p17,meditation,1,87,659,659,659,true,39,right,congruent,up,spatial
1,s1p17,meditation,1,88,555,555,555,true,37,left,neutral,up,center
1,s1p17,meditation,1,89,491,491,491,true,39,right,incongruent,up,center
1,s1p17,meditation,1,91,683,683,683,true,37,left,neutral,up,double
1,s1p17,meditation,1,92,498,498,498,true,37,left,neutral,down,center
1,s1p17,meditation,1,94,604,604,604,true,39,right,congruent,down,spatial
1,s1p17,meditation,1,95,518,518,518,true,39,right,neutral,down,nocue
1,s1p17,meditation,1,97,557,557,557,true,39,right,congruent,down,double
1,s1p17,meditation,1,98,462,462,462,true,39,right,neutral,down,double
1,s1p17,meditation,1,99,458,458,458,true,39,right,neutral,down,center
1,s1p17,meditation,1,101,452,452,452,true,39,right,neutral,up,spatial
1,s1p17,meditation,1,102,435,435,435,true,37,left,congruent,down,nocue
1,s1p17,meditation,1,103,469,469,469,true,39,right,incongruent,up,double
1,s1p17,meditation,1,104,540,540,540,true,39,right,neutral,down,nocue
1,s1p17,meditation,1,105,494,494,494,true,37,left,neutral,down,center
1,s1p17,meditation,1,106,548,548,548,true,37,left,neutral,up,nocue
1,s1p17,meditation,1,107,440,440,440,true,37,left,congruent,down,spatial
1,s1p17,meditation,1,108,693,693,693,true,39,right,congruent,up,center
1,s1p17,meditation,1,109,636,636,636,true,39,right,incongruent,up,nocue
1,s1p17,meditation,1,110,477,477,477,true,39,right,congruent,down,nocue
1,s1p17,meditation,1,111,590,590,590,true,39,right,incongruent,down,center
1,s1p17,meditation,1,112,420,420,420,true,39,right,congruent,up,nocue
1,s1p17,meditation,1,113,464,464,464,true,39,right,neutral,up,double
1,s1p17,meditation,1,114,547,547,547,true,39,right,neutral,up,nocue
1,s1p17,meditation,1,116,537,537,537,true,39,right,incongruent,down,nocue
1,s1p17,meditation,1,118,412,412,412,true,37,left,congruent,down,center
1,s1p17,meditation,1,119,417,417,417,true,37,left,neutral,up,spatial
1,s1p17,meditation,1,120,532,532,532,true,37,left,congruent,up,spatial
1,s1p17,meditation,1,121,433,433,433,true,37,left,congruent,up,center
1,s1p17,meditation,1,122,503,503,503,true,37,left,congruent,down,double
1,s1p17,meditation,1,123,486,486,486,true,37,left,incongruent,down,nocue
1,s1p17,meditation,1,124,508,508,508,true,39,right,congruent,up,spatial
1,s1p17,meditation,1,125,589,589,589,true,37,left,incongruent,up,spatial
1,s1p17,meditation,1,126,437,437,437,true,37,left,incongruent,up,double
1,s1p17,meditation,1,127,515,515,515,true,39,right,incongruent,up,center
1,s1p17,meditation,1,128,550,550,550,true,39,right,incongruent,up,spatial
1,s1p17,meditation,1,129,631,631,631,true,39,right,congruent,down,center
1,s1p17,meditation,1,130,423,423,423,true,39,right,incongruent,down,double
1,s1p17,meditation,1,132,579,579,579,true,39,right,congruent,down,spatial
1,s1p17,meditation,1,133,605,605,605,true,39,right,neutral,up,center
1,s1p17,meditation,1,134,610,610,610,true,37,left,incongruent,down,spatial
1,s1p17,meditation,1,135,477,477,477,true,37,left,neutral,down,nocue
1,s1p17,meditation,1,138,608,608,608,true,37,left,neutral,down,double
1,s1p17,meditation,1,140,418,418,418,true,39,right,neutral,down,spatial
1,s1p17,meditation,1,141,479,479,479,true,37,left,neutral,down,spatial
1,s1p17,meditation,1,142,592,592,592,true,39,right,congruent,up,double
1,s1p17,meditation,1,144,604,604,604,true,37,left,neutral,up,double
1,s1p18,meditation,1,1,531,531,531,true,39,right,neutral,up,nocue
1,s1p18,meditation,1,2,704,704,704,true,39,right,congruent,down,double
1,s1p18,meditation,1,3,655,655,655,true,39,right,neutral,down,nocue
1,s1p18,meditation,1,4,692,692,692,true,39,right,neutral,down,center
1,s1p18,meditation,1,5,729,729,729,true,39,right,congruent,down,spatial
1,s1p18,meditation,1,7,701,701,701,true,39,right,incongruent,up,spatial
1,s1p18,meditation,1,8,638,638,638,true,37,left,congruent,down,center
1,s1p18,meditation,1,9,632,632,632,true,39,right,neutral,up,center
1,s1p18,meditation,1,10,716,716,716,true,37,left,incongruent,down,double
1,s1p18,meditation,1,11,632,632,632,true,39,right,incongruent,up,center
1,s1p18,meditation,1,12,589,589,589,true,39,right,congruent,down,nocue
1,s1p18,meditation,1,13,618,618,618,true,37,left,neutral,up,spatial
1,s1p18,meditation,1,14,648,648,648,true,37,left,congruent,up,nocue
1,s1p18,meditation,1,15,591,591,591,true,37,left,neutral,down,spatial
1,s1p18,meditation,1,16,534,534,534,true,37,left,neutral,up,center
1,s1p18,meditation,1,17,584,584,584,true,39,right,congruent,up,spatial
1,s1p18,meditation,1,18,750,750,750,true,39,right,congruent,down,center
1,s1p18,meditation,1,19,558,558,558,true,37,left,neutral,down,double
1,s1p18,meditation,1,20,682,682,682,true,39,right,neutral,down,double
1,s1p18,meditation,1,21,683,683,683,true,37,left,incongruent,up,nocue
1,s1p18,meditation,1,22,822,822,822,true,39,right,incongruent,up,double
1,s1p18,meditation,1,23,707,707,707,true,37,left,incongruent,down,spatial
1,s1p18,meditation,1,24,738,738,738,true,37,left,congruent,down,double
1,s1p18,meditation,1,25,551,551,551,true,39,right,congruent,up,nocue
1,s1p18,meditation,1,26,829,829,829,true,39,right,incongruent,up,nocue
1,s1p18,meditation,1,27,679,679,679,true,37,left,incongruent,up,center
1,s1p18,meditation,1,28,671,671,671,true,37,left,congruent,up,double
1,s1p18,meditation,1,29,666,666,666,true,39,right,incongruent,down,spatial
1,s1p18,meditation,1,30,652,652,652,true,39,right,congruent,up,center
1,s1p18,meditation,1,31,578,578,578,true,39,right,neutral,down,spatial
1,s1p18,meditation,1,32,453,453,453,true,39,right,neutral,up,spatial
1,s1p18,meditation,1,33,684,684,684,true,37,left,incongruent,down,nocue
1,s1p18,meditation,1,34,630,630,630,true,37,left,neutral,up,nocue
1,s1p18,meditation,1,35,639,639,639,true,37,left,incongruent,down,center
1,s1p18,meditation,1,36,496,496,496,true,37,left,neutral,down,center
1,s1p18,meditation,1,37,591,591,591,true,39,right,neutral,up,double
1,s1p18,meditation,1,39,614,614,614,true,37,left,congruent,down,spatial
1,s1p18,meditation,1,40,493,493,493,true,39,right,congruent,up,double
1,s1p18,meditation,1,41,530,530,530,true,37,left,neutral,down,nocue
1,s1p18,meditation,1,42,487,487,487,true,37,left,congruent,up,spatial
1,s1p18,meditation,1,43,838,838,838,true,39,right,incongruent,down,center
1,s1p18,meditation,1,44,737,737,737,true,39,right,incongruent,down,double
1,s1p18,meditation,1,45,594,594,594,true,37,left,incongruent,up,spatial
1,s1p18,meditation,1,46,594,594,594,true,37,left,congruent,down,nocue
1,s1p18,meditation,1,47,892,892,892,true,39,right,incongruent,down,nocue
1,s1p18,meditation,1,48,620,620,620,true,37,left,congruent,up,center
1,s1p18,meditation,1,50,608,608,608,true,39,right,neutral,up,center
1,s1p18,meditation,1,51,395,395,395,true,39,right,incongruent,up,spatial
1,s1p18,meditation,1,52,687,687,687,true,39,right,neutral,down,center
1,s1p18,meditation,1,53,690,690,690,true,37,left,incongruent,up,double
1,s1p18,meditation,1,54,621,621,621,true,37,left,incongruent,down,center
1,s1p18,meditation,1,55,576,576,576,true,37,left,incongruent,down,spatial
1,s1p18,meditation,1,56,614,614,614,true,37,left,congruent,up,center
1,s1p18,meditation,1,57,652,652,652,true,39,right,congruent,down,spatial
1,s1p18,meditation,1,58,479,479,479,true,37,left,neutral,up,spatial
1,s1p18,meditation,1,59,648,648,648,true,37,left,congruent,down,double
1,s1p18,meditation,1,60,596,596,596,true,39,right,incongruent,up,double
1,s1p18,meditation,1,61,692,692,692,true,37,left,incongruent,up,spatial
1,s1p18,meditation,1,62,747,747,747,true,39,right,incongruent,down,spatial
1,s1p18,meditation,1,63,555,555,555,true,37,left,neutral,up,center
1,s1p18,meditation,1,64,665,665,665,true,39,right,incongruent,down,double
1,s1p18,meditation,1,65,567,567,567,true,39,right,congruent,up,center
1,s1p18,meditation,1,66,517,517,517,true,39,right,neutral,down,spatial
1,s1p18,meditation,1,67,495,495,495,true,37,left,congruent,up,double
1,s1p18,meditation,1,68,673,673,673,true,37,left,incongruent,up,center
1,s1p18,meditation,1,69,623,623,623,true,37,left,congruent,down,nocue
1,s1p18,meditation,1,70,713,713,713,true,39,right,neutral,down,double
1,s1p18,meditation,1,71,627,627,627,true,39,right,incongruent,up,nocue
1,s1p18,meditation,1,72,760,760,760,true,37,left,congruent,up,spatial
1,s1p18,meditation,1,73,527,527,527,true,39,right,congruent,up,double
1,s1p18,meditation,1,74,572,572,572,true,37,left,neutral,down,spatial
1,s1p18,meditation,1,75,578,578,578,true,37,left,congruent,down,center
1,s1p18,meditation,1,76,722,722,722,true,37,left,neutral,down,nocue
1,s1p18,meditation,1,77,608,608,608,true,37,left,congruent,up,nocue
1,s1p18,meditation,1,78,548,548,548,true,37,left,neutral,up,double
1,s1p18,meditation,1,79,551,551,551,true,39,right,congruent,up,spatial
1,s1p18,meditation,1,80,690,690,690,true,39,right,congruent,down,double
1,s1p18,meditation,1,81,596,596,596,true,39,right,incongruent,up,center
1,s1p18,meditation,1,82,709,709,709,true,37,left,neutral,down,double
1,s1p18,meditation,1,83,902,902,902,true,39,right,incongruent,down,center
1,s1p18,meditation,1,84,480,480,480,true,39,right,neutral,up,double
1,s1p18,meditation,1,85,442,442,442,true,39,right,neutral,up,spatial
1,s1p18,meditation,1,86,641,641,641,true,37,left,congruent,down,spatial
1,s1p18,meditation,1,87,628,628,628,true,39,right,congruent,down,nocue
1,s1p18,meditation,1,88,614,614,614,true,37,left,neutral,down,center
1,s1p18,meditation,1,89,707,707,707,true,37,left,incongruent,down,nocue
1,s1p18,meditation,1,90,814,814,814,true,39,right,incongruent,down,nocue
1,s1p18,meditation,1,91,800,800,800,true,37,left,incongruent,up,nocue
1,s1p18,meditation,1,92,685,685,685,true,37,left,incongruent,down,double
1,s1p18,meditation,1,93,614,614,614,true,37,left,neutral,up,nocue
1,s1p18,meditation,1,94,616,616,616,true,39,right,neutral,down,nocue
1,s1p18,meditation,1,95,601,601,601,true,39,right,congruent,up,nocue
1,s1p18,meditation,1,96,557,557,557,true,39,right,congruent,down,center
1,s1p18,meditation,1,97,668,668,668,true,39,right,neutral,up,double
1,s1p18,meditation,1,98,552,552,552,true,37,left,neutral,down,double
1,s1p18,meditation,1,99,629,629,629,true,39,right,neutral,down,double
1,s1p18,meditation,1,100,515,515,515,true,39,right,congruent,down,double
1,s1p18,meditation,1,101,735,735,735,true,39,right,congruent,down,center
1,s1p18,meditation,1,103,666,666,666,true,37,left,incongruent,up,nocue
1,s1p18,meditation,1,104,638,638,638,true,37,left,incongruent,down,double
1,s1p18,meditation,1,105,606,606,606,true,39,right,incongruent,up,spatial
1,s1p18,meditation,1,106,681,681,681,true,37,left,neutral,up,double
1,s1p18,meditation,1,107,739,739,739,true,39,right,congruent,up,nocue
1,s1p18,meditation,1,108,599,599,599,true,37,left,congruent,up,center
1,s1p18,meditation,1,109,681,681,681,true,39,right,incongruent,down,spatial
1,s1p18,meditation,1,110,834,834,834,true,39,right,congruent,down,nocue
1,s1p18,meditation,1,111,613,613,613,true,39,right,congruent,down,spatial
1,s1p18,meditation,1,112,623,623,623,true,37,left,neutral,up,nocue
1,s1p18,meditation,1,113,660,660,660,true,39,right,incongruent,up,nocue
1,s1p18,meditation,1,114,683,683,683,true,39,right,congruent,up,spatial
1,s1p18,meditation,1,115,726,726,726,true,37,left,incongruent,up,center
1,s1p18,meditation,1,116,700,700,700,true,39,right,congruent,up,center
1,s1p18,meditation,1,117,716,716,716,true,39,right,neutral,up,center
1,s1p18,meditation,1,118,887,887,887,true,39,right,incongruent,down,double
1,s1p18,meditation,1,119,577,577,577,true,39,right,neutral,down,nocue
1,s1p18,meditation,1,120,618,618,618,true,37,left,congruent,down,center
1,s1p18,meditation,1,121,661,661,661,true,37,left,congruent,down,spatial
1,s1p18,meditation,1,122,705,705,705,true,39,right,neutral,up,spatial
1,s1p18,meditation,1,123,888,888,888,true,37,left,incongruent,down,center
1,s1p18,meditation,1,124,611,611,611,true,39,right,neutral,down,spatial
1,s1p18,meditation,1,125,851,851,851,true,39,right,neutral,up,nocue
1,s1p18,meditation,1,126,709,709,709,true,39,right,incongruent,down,center
1,s1p18,meditation,1,127,532,532,532,true,37,left,congruent,up,nocue
1,s1p18,meditation,1,128,481,481,481,true,37,left,congruent,up,spatial
1,s1p18,meditation,1,130,561,561,561,true,39,right,incongruent,up,center
1,s1p18,meditation,1,131,675,675,675,true,37,left,congruent,up,double
1,s1p18,meditation,1,132,460,460,460,true,37,left,neutral,up,center
1,s1p18,meditation,1,133,711,711,711,true,37,left,congruent,down,double
1,s1p18,meditation,1,134,679,679,679,true,37,left,incongruent,up,spatial
1,s1p18,meditation,1,137,692,692,692,true,39,right,congruent,up,double
1,s1p18,meditation,1,138,630,630,630,true,37,left,neutral,down,nocue
1,s1p18,meditation,1,139,539,539,539,true,37,left,incongruent,up,double
1,s1p18,meditation,1,140,495,495,495,true,37,left,incongruent,down,spatial
1,s1p18,meditation,1,141,397,397,397,true,37,left,neutral,up,spatial
1,s1p18,meditation,1,142,494,494,494,true,37,left,neutral,down,spatial
1,s1p18,meditation,1,143,579,579,579,true,37,left,congruent,down,nocue
1,s1p18,meditation,1,144,524,524,524,true,37,left,incongruent,down,nocue
1,s1p19,control,1,1,513,513,513,true,39,right,incongruent,up,double
1,s1p19,control,1,2,791,791,791,true,39,right,congruent,up,center
1,s1p19,control,1,3,815,815,815,true,37,left,congruent,down,spatial
1,s1p19,control,1,4,551,551,551,true,37,left,neutral,down,spatial
1,s1p19,control,1,5,520,520,520,true,37,left,incongruent,down,spatial
1,s1p19,control,1,6,711,711,711,true,39,right,neutral,down,double
1,s1p19,control,1,7,429,429,429,true,37,left,congruent,down,double
1,s1p19,control,1,8,709,709,709,true,39,right,neutral,up,nocue
1,s1p19,control,1,9,622,622,622,true,37,left,congruent,down,center
1,s1p19,control,1,10,672,672,672,true,39,right,congruent,down,center
1,s1p19,control,1,11,541,541,541,true,39,right,neutral,up,center
1,s1p19,control,1,12,538,538,538,true,39,right,neutral,up,double
1,s1p19,control,1,14,571,571,571,true,39,right,congruent,up,double
1,s1p19,control,1,15,757,757,757,true,39,right,incongruent,down,double
1,s1p19,control,1,16,775,775,775,true,39,right,neutral,down,nocue
1,s1p19,control,1,17,781,781,781,true,39,right,incongruent,down,nocue
1,s1p19,control,1,18,623,623,623,true,37,left,incongruent,up,spatial
1,s1p19,control,1,19,605,605,605,true,39,right,congruent,down,double
1,s1p19,control,1,20,593,593,593,true,37,left,incongruent,up,nocue
1,s1p19,control,1,21,639,639,639,true,37,left,incongruent,down,double
1,s1p19,control,1,22,681,681,681,true,37,left,congruent,up,spatial
1,s1p19,control,1,23,511,511,511,true,39,right,neutral,up,spatial
1,s1p19,control,1,24,616,616,616,true,37,left,neutral,down,nocue
1,s1p19,control,1,25,567,567,567,true,37,left,incongruent,down,nocue
1,s1p19,control,1,26,503,503,503,true,39,right,congruent,up,nocue
1,s1p19,control,1,27,703,703,703,true,37,left,neutral,up,center
1,s1p19,control,1,28,630,630,630,true,39,right,incongruent,down,spatial
1,s1p19,control,1,29,831,831,831,true,39,right,incongruent,down,center
1,s1p19,control,1,30,728,728,728,true,37,left,congruent,up,nocue
1,s1p19,control,1,31,509,509,509,true,39,right,neutral,down,spatial
1,s1p19,control,1,32,497,497,497,true,39,right,congruent,up,spatial
1,s1p19,control,1,33,768,768,768,true,37,left,neutral,down,center
1,s1p19,control,1,34,756,756,756,true,37,left,incongruent,up,double
1,s1p19,control,1,35,603,603,603,true,37,left,incongruent,up,center
1,s1p19,control,1,36,694,694,694,true,39,right,incongruent,up,nocue
1,s1p19,control,1,37,552,552,552,true,37,left,congruent,up,center
1,s1p19,control,1,38,811,811,811,true,37,left,neutral,up,nocue
1,s1p19,control,1,39,595,595,595,true,37,left,neutral,up,double
1,s1p19,control,1,40,707,707,707,true,37,left,neutral,down,double
1,s1p19,control,1,41,842,842,842,true,39,right,neutral,down,center
1,s1p19,control,1,42,966,966,966,true,37,left,neutral,up,spatial
1,s1p19,control,1,43,938,938,938,true,39,right,incongruent,up,center
1,s1p19,control,1,44,908,908,908,true,37,left,congruent,down,nocue
1,s1p19,control,1,45,614,614,614,true,37,left,incongruent,down,center
1,s1p19,control,1,46,781,781,781,true,39,right,incongruent,up,spatial
1,s1p19,control,1,47,482,482,482,true,39,right,congruent,down,spatial
1,s1p19,control,1,48,599,599,599,true,39,right,congruent,down,nocue
1,s1p19,control,1,49,583,583,583,true,37,left,neutral,up,center
1,s1p19,control,1,50,503,503,503,true,37,left,neutral,up,nocue
1,s1p19,control,1,51,705,705,705,true,37,left,incongruent,down,double
1,s1p19,control,1,52,721,721,721,true,37,left,incongruent,up,center
1,s1p19,control,1,53,576,576,576,true,39,right,neutral,down,center
1,s1p19,control,1,54,606,606,606,true,37,left,neutral,down,nocue
1,s1p19,control,1,55,934,934,934,true,37,left,incongruent,up,spatial
1,s1p19,control,1,56,774,774,774,true,37,left,incongruent,down,spatial
1,s1p19,control,1,57,592,592,592,true,39,right,incongruent,up,double
1,s1p19,control,1,58,613,613,613,true,39,right,congruent,up,center
1,s1p19,control,1,59,785,785,785,true,37,left,neutral,up,double
1,s1p19,control,1,60,723,723,723,true,39,right,congruent,up,nocue
1,s1p19,control,1,61,745,745,745,true,37,left,congruent,down,double
1,s1p19,control,1,62,414,414,414,true,37,left,neutral,down,spatial
1,s1p19,control,1,63,442,442,442,true,39,right,congruent,up,spatial
1,s1p19,control,1,64,747,747,747,true,37,left,congruent,up,center
1,s1p19,control,1,65,681,681,681,true,37,left,incongruent,up,nocue
1,s1p19,control,1,66,535,535,535,true,39,right,neutral,down,spatial
1,s1p19,control,1,67,725,725,725,true,39,right,congruent,up,double
1,s1p19,control,1,68,648,648,648,true,37,left,congruent,up,double
1,s1p19,control,1,69,576,576,576,true,39,right,incongruent,down,double
1,s1p19,control,1,70,835,835,835,true,39,right,congruent,down,nocue
1,s1p19,control,1,71,773,773,773,true,39,right,incongruent,down,center
1,s1p19,control,1,72,514,514,514,true,39,right,congruent,down,center
1,s1p19,control,1,73,607,607,607,true,39,right,neutral,down,double
1,s1p19,control,1,74,646,646,646,true,37,left,neutral,down,center
1,s1p19,control,1,75,713,713,713,true,39,right,neutral,up,center
1,s1p19,control,1,76,686,686,686,true,37,left,incongruent,down,center
1,s1p19,control,1,77,943,943,943,true,39,right,incongruent,up,nocue
1,s1p19,control,1,78,970,970,970,true,37,left,congruent,up,nocue
1,s1p19,control,1,79,767,767,767,true,39,right,incongruent,down,spatial
1,s1p19,control,1,80,626,626,626,true,37,left,neutral,up,spatial
1,s1p19,control,1,81,601,601,601,true,39,right,congruent,down,double
1,s1p19,control,1,82,779,779,779,true,39,right,incongruent,down,nocue
1,s1p19,control,1,83,827,827,827,true,39,right,neutral,up,double
1,s1p19,control,1,84,687,687,687,true,37,left,neutral,down,double
1,s1p19,control,1,85,690,690,690,true,37,left,incongruent,up,double
1,s1p19,control,1,87,740,740,740,true,39,right,incongruent,up,center
1,s1p19,control,1,88,816,816,816,true,37,left,congruent,down,nocue
1,s1p19,control,1,89,655,655,655,true,39,right,congruent,down,spatial
1,s1p19,control,1,90,637,637,637,true,37,left,congruent,down,center
1,s1p19,control,1,91,879,879,879,true,39,right,neutral,up,nocue
1,s1p19,control,1,92,506,506,506,true,37,left,congruent,down,spatial
1,s1p19,control,1,93,428,428,428,true,39,right,neutral,up,spatial
1,s1p19,control,1,94,688,688,688,true,37,left,incongruent,down,nocue
1,s1p19,control,1,95,762,762,762,true,39,right,incongruent,up,spatial
1,s1p19,control,1,96,524,524,524,true,39,right,neutral,down,nocue
1,s1p19,control,1,97,706,706,706,true,39,right,congruent,up,double
1,s1p19,control,1,98,484,484,484,true,39,right,neutral,up,center
1,s1p19,control,1,99,658,658,658,true,39,right,neutral,up,nocue
1,s1p19,control,1,100,746,746,746,true,39,right,neutral,down,nocue
1,s1p19,control,1,101,785,785,785,true,39,right,neutral,down,center
1,s1p19,control,1,102,579,579,579,true,39,right,neutral,down,spatial
1,s1p19,control,1,103,567,567,567,true,37,left,congruent,up,spatial
1,s1p19,control,1,104,662,662,662,true,37,left,congruent,down,nocue
1,s1p19,control,1,105,923,923,923,true,39,right,congruent,down,nocue
1,s1p19,control,1,106,944,944,944,true,37,left,incongruent,down,spatial
1,s1p19,control,1,107,668,668,668,true,39,right,neutral,down,double
1,s1p19,control,1,108,774,774,774,true,39,right,incongruent,down,double
1,s1p19,control,1,109,591,591,591,true,39,right,congruent,down,spatial
1,s1p19,control,1,110,918,918,918,true,37,left,congruent,up,nocue
1,s1p19,control,1,111,648,648,648,true,39,right,congruent,up,spatial
1,s1p19,control,1,112,843,843,843,true,37,left,incongruent,up,center
1,s1p19,control,1,113,752,752,752,true,37,left,neutral,down,nocue
1,s1p19,control,1,114,610,610,610,true,37,left,neutral,down,double
1,s1p19,control,1,115,708,708,708,true,39,right,congruent,up,nocue
1,s1p19,control,1,117,480,480,480,true,37,left,neutral,up,spatial
1,s1p19,control,1,118,561,561,561,true,39,right,congruent,up,center
1,s1p19,control,1,119,772,772,772,true,37,left,incongruent,down,center
1,s1p19,control,1,120,495,495,495,true,39,right,incongruent,down,spatial
1,s1p19,control,1,121,730,730,730,true,37,left,incongruent,up,double
1,s1p19,control,1,122,664,664,664,true,37,left,congruent,up,center
1,s1p19,control,1,123,938,938,938,true,39,right,congruent,down,center
1,s1p19,control,1,124,798,798,798,true,39,right,incongruent,up,nocue
1,s1p19,control,1,125,637,637,637,true,39,right,incongruent,down,center
1,s1p19,control,1,126,774,774,774,true,37,left,incongruent,down,double
1,s1p19,control,1,127,550,550,550,true,37,left,congruent,up,double
1,s1p19,control,1,128,653,653,653,true,37,left,neutral,down,spatial
1,s1p19,control,1,129,729,729,729,true,37,left,incongruent,down,nocue
1,s1p19,control,1,130,640,640,640,true,37,left,neutral,up,center
1,s1p19,control,1,131,522,522,522,true,37,left,incongruent,up,spatial
1,s1p19,control,1,132,680,680,680,true,39,right,incongruent,up,double
1,s1p19,control,1,133,814,814,814,true,37,left,congruent,down,spatial
1,s1p19,control,1,134,806,806,806,true,39,right,incongruent,down,nocue
1,s1p19,control,1,135,673,673,673,true,39,right,neutral,up,spatial
1,s1p19,control,1,136,478,478,478,true,37,left,neutral,up,nocue
1,s1p19,control,1,137,434,434,434,true,39,right,neutral,up,double
1,s1p19,control,1,138,730,730,730,true,39,right,congruent,down,double
1,s1p19,control,1,139,776,776,776,true,37,left,congruent,down,center
1,s1p19,control,1,140,736,736,736,true,39,right,incongruent,up,center
1,s1p19,control,1,141,988,988,988,true,37,left,incongruent,up,nocue
1,s1p19,control,1,142,852,852,852,true,39,right,incongruent,up,spatial
1,s1p19,control,1,143,551,551,551,true,37,left,congruent,down,double
1,s1p19,control,1,144,635,635,635,true,37,left,neutral,down,center
1,s1p20,control,1,1,575,575,575,true,37,left,incongruent,up,double
1,s1p20,control,1,2,574,574,574,true,37,left,incongruent,down,spatial
1,s1p20,control,1,3,448,448,448,true,39,right,neutral,up,spatial
1,s1p20,control,1,4,603,603,603,true,37,left,incongruent,up,center
1,s1p20,control,1,5,477,477,477,true,39,right,congruent,up,spatial
1,s1p20,control,1,6,526,526,526,true,37,left,neutral,up,double
1,s1p20,control,1,7,872,872,872,true,37,left,incongruent,down,double
1,s1p20,control,1,8,617,617,617,true,37,left,congruent,down,spatial
1,s1p20,control,1,9,745,745,745,true,37,left,neutral,down,double
1,s1p20,control,1,10,520,520,520,true,37,left,incongruent,up,nocue
1,s1p20,control,1,11,677,677,677,true,37,left,congruent,up,double
1,s1p20,control,1,12,593,593,593,true,37,left,congruent,down,center
1,s1p20,control,1,13,693,693,693,true,39,right,congruent,down,nocue
1,s1p20,control,1,14,403,403,403,true,37,left,neutral,up,spatial
1,s1p20,control,1,15,433,433,433,true,37,left,congruent,up,center
1,s1p20,control,1,16,790,790,790,true,39,right,incongruent,down,double
1,s1p20,control,1,17,681,681,681,true,39,right,incongruent,down,center
1,s1p20,control,1,18,956,956,956,true,39,right,incongruent,down,spatial
1,s1p20,control,1,19,427,427,427,true,39,right,congruent,down,spatial
1,s1p20,control,1,20,710,710,710,true,37,left,neutral,down,center
1,s1p20,control,1,22,526,526,526,true,37,left,congruent,down,nocue
1,s1p20,control,1,23,633,633,633,true,37,left,congruent,down,double
1,s1p20,control,1,24,684,684,684,true,39,right,neutral,down,center
1,s1p20,control,1,25,677,677,677,true,39,right,neutral,up,nocue
1,s1p20,control,1,26,756,756,756,true,39,right,incongruent,up,center
1,s1p20,control,1,27,547,547,547,true,39,right,neutral,up,center
1,s1p20,control,1,28,627,627,627,true,37,left,incongruent,down,center
1,s1p20,control,1,30,699,699,699,true,39,right,congruent,up,center
1,s1p20,control,1,31,754,754,754,true,37,left,neutral,down,spatial
1,s1p20,control,1,32,585,585,585,true,39,right,incongruent,up,spatial
1,s1p20,control,1,33,624,624,624,true,39,right,neutral,down,double
1,s1p20,control,1,34,749,749,749,true,39,right,congruent,down,double
1,s1p20,control,1,35,743,743,743,true,37,left,incongruent,up,spatial
1,s1p20,control,1,36,527,527,527,true,37,left,congruent,up,spatial
1,s1p20,control,1,37,601,601,601,true,39,right,congruent,up,double
1,s1p20,control,1,38,595,595,595,true,39,right,incongruent,up,double
1,s1p20,control,1,39,1397,1397,1397,true,37,left,neutral,up,center
1,s1p20,control,1,40,839,839,839,true,37,left,neutral,down,nocue
1,s1p20,control,1,41,657,657,657,true,39,right,neutral,down,spatial
1,s1p20,control,1,42,583,583,583,true,37,left,neutral,up,nocue
1,s1p20,control,1,43,725,725,725,true,37,left,congruent,up,nocue
1,s1p20,control,1,44,790,790,790,true,39,right,congruent,up,nocue
1,s1p20,control,1,45,903,903,903,true,39,right,neutral,down,nocue
1,s1p20,control,1,46,631,631,631,true,39,right,congruent,down,center
1,s1p20,control,1,47,624,624,624,true,39,right,neutral,up,double
1,s1p20,control,1,48,705,705,705,true,39,right,incongruent,down,nocue
1,s1p20,control,1,49,681,681,681,true,39,right,neutral,down,spatial
1,s1p20,control,1,50,582,582,582,true,37,left,incongruent,up,spatial
1,s1p20,control,1,51,554,554,554,true,37,left,congruent,down,double
1,s1p20,control,1,52,764,764,764,true,39,right,congruent,up,center
1,s1p20,control,1,53,573,573,573,true,37,left,congruent,up,nocue
1,s1p20,control,1,54,528,528,528,true,37,left,incongruent,up,double
1,s1p20,control,1,55,526,526,526,true,37,left,congruent,up,spatial
1,s1p20,control,1,56,448,448,448,true,37,left,neutral,up,spatial
1,s1p20,control,1,57,707,707,707,true,39,right,neutral,down,double
1,s1p20,control,1,58,737,737,737,true,39,right,congruent,down,double
1,s1p20,control,1,59,641,641,641,true,39,right,congruent,down,center
1,s1p20,control,1,60,554,554,554,true,39,right,incongruent,up,double
1,s1p20,control,1,61,673,673,673,true,39,right,incongruent,down,double
1,s1p20,control,1,62,865,865,865,true,37,left,incongruent,down,center
1,s1p20,control,1,63,615,615,615,true,39,right,neutral,up,nocue
1,s1p20,control,1,64,1069,1069,1069,true,39,right,congruent,down,nocue
1,s1p20,control,1,65,1161,1161,1161,true,39,right,congruent,down,spatial
1,s1p20,control,1,66,657,657,657,true,37,left,neutral,up,center
1,s1p20,control,1,67,819,819,819,true,37,left,incongruent,down,nocue
1,s1p20,control,1,68,635,635,635,true,39,right,neutral,down,nocue
1,s1p20,control,1,69,626,626,626,true,39,right,congruent,up,nocue
1,s1p20,control,1,70,683,683,683,true,39,right,neutral,down,center
1,s1p20,control,1,71,479,479,479,true,37,left,congruent,down,spatial
1,s1p20,control,1,72,759,759,759,true,39,right,incongruent,up,nocue
1,s1p20,control,1,73,1065,1065,1065,true,39,right,incongruent,down,nocue
1,s1p20,control,1,74,718,718,718,true,37,left,neutral,down,center
